trial;start_time;rt;correct;fact_id;question;context_1;context_2;answer;chosen_context;encounter_2;reading_time;fogetting_rate;;;;;;;;;;;;;;;;;;;;;;;;;;;;;;;;;;;;;;;;;;;;;;;;;;;;;;;;;;;;;;;;;;;;;;;;;;;;;;;;;;;;;;;;;;;;;;;;;;;;;;;;;;;;;;;;;;;;;;;;;;;;;;;;;;;;;;;;;;;;;;;;;;;;;;;;;;;;;;;;;;;;;;;;;;;;;;;;;;;;;;;;;;;;;;;;;;;;;;
1;1083550.0;3613.0;TRUE;1;verschrikkelijk;Ik vind het <b>verschrikkelijk</b> om voor een groep te spreken.;Het was een <b>verschrikkelijke</b> dag.;terrible;awful;horrible;dreadful;Ik vind het <b>verschrikkelijk</b> om voor een groep te spreken.;FALSE;1090.1;0.29960937499999996;;;;;;;;;;;;;;;;;;;;;;;;;;;;;;;;;;;;;;;;;;;;;;;;;;;;;;;;;;;;;;;;;;;;;;;;;;;;;;;;;;;;;;;;;;;;;;;;;;;;;;;;;;;;;;;;;;;;;;;;;;;;;;;;;;;;;;;;;;;;;;;;;;;;;;;;;;;;;;;;;;;;;;;;;;;;;;;;;;;;;;;;;;;;;;;;;;;
2;1090939.0;1100.0;TRUE;1;verschrikkelijk;Ik vind het <b>verschrikkelijk</b> om voor een groep te spreken.;Het was een <b>verschrikkelijke</b> dag.;terrible;awful;horrible;dreadful;Ik vind het <b>verschrikkelijk</b> om voor een groep te spreken.;FALSE;1090.1;0.24999999999999997;;;;;;;;;;;;;;;;;;;;;;;;;;;;;;;;;;;;;;;;;;;;;;;;;;;;;;;;;;;;;;;;;;;;;;;;;;;;;;;;;;;;;;;;;;;;;;;;;;;;;;;;;;;;;;;;;;;;;;;;;;;;;;;;;;;;;;;;;;;;;;;;;;;;;;;;;;;;;;;;;;;;;;;;;;;;;;;;;;;;;;;;;;;;;;;;;;;
3;1094630.0;1409.0;TRUE;2;zelfstandig;Het is prettig als werknemers <b>zelfstandig</b> kunnen werken.;Ik vond het in het begin moeilijk om <b>zelfstandig</b> te wonen.;independent;independently;Het is prettig als werknemers <b>zelfstandig</b> kunnen werken.;FALSE;1070.6;0.3;;;;;;;;;;;;;;;;;;;;;;;;;;;;;;;;;;;;;;;;;;;;;;;;;;;;;;;;;;;;;;;;;;;;;;;;;;;;;;;;;;;;;;;;;;;;;;;;;;;;;;;;;;;;;;;;;;;;;;;;;;;;;;;;;;;;;;;;;;;;;;;;;;;;;;;;;;;;;;;;;;;;;;;;;;;;;;;;;;;;;;;;;;;;;;;;;;;;;
4;1098925.0;3561.0;TRUE;3;gewoonte;Ik heb de slechte <b>gewoonte</b> om te laat te komen.;Het is een goede <b>gewoonte</b> om je handen te wassen voor het eten.;habit;Ik heb de slechte <b>gewoonte</b> om te laat te komen.;FALSE;895.1;0.3;;;;;;;;;;;;;;;;;;;;;;;;;;;;;;;;;;;;;;;;;;;;;;;;;;;;;;;;;;;;;;;;;;;;;;;;;;;;;;;;;;;;;;;;;;;;;;;;;;;;;;;;;;;;;;;;;;;;;;;;;;;;;;;;;;;;;;;;;;;;;;;;;;;;;;;;;;;;;;;;;;;;;;;;;;;;;;;;;;;;;;;;;;;;;;;;;;;;;;
5;1105388.0;946.0;TRUE;2;zelfstandig;Het is prettig als werknemers <b>zelfstandig</b> kunnen werken.;Ik vond het in het begin moeilijk om <b>zelfstandig</b> te wonen.;independent;independently;Het is prettig als werknemers <b>zelfstandig</b> kunnen werken.;FALSE;1070.6;0.250390625;;;;;;;;;;;;;;;;;;;;;;;;;;;;;;;;;;;;;;;;;;;;;;;;;;;;;;;;;;;;;;;;;;;;;;;;;;;;;;;;;;;;;;;;;;;;;;;;;;;;;;;;;;;;;;;;;;;;;;;;;;;;;;;;;;;;;;;;;;;;;;;;;;;;;;;;;;;;;;;;;;;;;;;;;;;;;;;;;;;;;;;;;;;;;;;;;;;;;
6;1109686.0;1124.0;TRUE;3;gewoonte;Ik heb de slechte <b>gewoonte</b> om te laat te komen.;Het is een goede <b>gewoonte</b> om je handen te wassen voor het eten.;habit;Ik heb de slechte <b>gewoonte</b> om te laat te komen.;FALSE;895.1;0.250390625;;;;;;;;;;;;;;;;;;;;;;;;;;;;;;;;;;;;;;;;;;;;;;;;;;;;;;;;;;;;;;;;;;;;;;;;;;;;;;;;;;;;;;;;;;;;;;;;;;;;;;;;;;;;;;;;;;;;;;;;;;;;;;;;;;;;;;;;;;;;;;;;;;;;;;;;;;;;;;;;;;;;;;;;;;;;;;;;;;;;;;;;;;;;;;;;;;;;;;
7;1112919.0;1642.0;TRUE;4;verwondering;Kinderen zitten vol <b>verwondering</b>.;Ik sta vol <b>verwondering</b> naar de sterren te kijken.;wonder;surprise;Kinderen zitten vol <b>verwondering</b>.;FALSE;622.1;0.3;;;;;;;;;;;;;;;;;;;;;;;;;;;;;;;;;;;;;;;;;;;;;;;;;;;;;;;;;;;;;;;;;;;;;;;;;;;;;;;;;;;;;;;;;;;;;;;;;;;;;;;;;;;;;;;;;;;;;;;;;;;;;;;;;;;;;;;;;;;;;;;;;;;;;;;;;;;;;;;;;;;;;;;;;;;;;;;;;;;;;;;;;;;;;;;;;;;;;
8;1132546.0;2001.0;TRUE;5;bijeenkomst;SNIC is een <b>bijeenkomst</b> met studenten van verschillende opleidingen.;De <b>bijeenkomst</b> begint om 10 uur.;meeting;gathering;SNIC is een <b>bijeenkomst</b> met studenten van verschillende opleidingen.;FALSE;1304.6;0.3;;;;;;;;;;;;;;;;;;;;;;;;;;;;;;;;;;;;;;;;;;;;;;;;;;;;;;;;;;;;;;;;;;;;;;;;;;;;;;;;;;;;;;;;;;;;;;;;;;;;;;;;;;;;;;;;;;;;;;;;;;;;;;;;;;;;;;;;;;;;;;;;;;;;;;;;;;;;;;;;;;;;;;;;;;;;;;;;;;;;;;;;;;;;;;;;;;;;;
9;1137375.0;1244.0;TRUE;4;verwondering;Kinderen zitten vol <b>verwondering</b>.;Ik sta vol <b>verwondering</b> naar de sterren te kijken.;wonder;surprise;Kinderen zitten vol <b>verwondering</b>.;FALSE;622.1;0.250390625;;;;;;;;;;;;;;;;;;;;;;;;;;;;;;;;;;;;;;;;;;;;;;;;;;;;;;;;;;;;;;;;;;;;;;;;;;;;;;;;;;;;;;;;;;;;;;;;;;;;;;;;;;;;;;;;;;;;;;;;;;;;;;;;;;;;;;;;;;;;;;;;;;;;;;;;;;;;;;;;;;;;;;;;;;;;;;;;;;;;;;;;;;;;;;;;;;;;;
10;1140868.0;1323.0;TRUE;5;bijeenkomst;SNIC is een <b>bijeenkomst</b> met studenten van verschillende opleidingen.;De <b>bijeenkomst</b> begint om 10 uur.;meeting;gathering;SNIC is een <b>bijeenkomst</b> met studenten van verschillende opleidingen.;FALSE;1304.6;0.250390625;;;;;;;;;;;;;;;;;;;;;;;;;;;;;;;;;;;;;;;;;;;;;;;;;;;;;;;;;;;;;;;;;;;;;;;;;;;;;;;;;;;;;;;;;;;;;;;;;;;;;;;;;;;;;;;;;;;;;;;;;;;;;;;;;;;;;;;;;;;;;;;;;;;;;;;;;;;;;;;;;;;;;;;;;;;;;;;;;;;;;;;;;;;;;;;;;;;;;
11;1145081.0;1042.0;TRUE;6;vriendschap;Deze <b>vriendschap</b> is erg belangrijk voor mij.;Een <b>vriendschap</b> moet onderhouden worden.;friendship;Deze <b>vriendschap</b> is erg belangrijk voor mij.;FALSE;836.6;0.3;;;;;;;;;;;;;;;;;;;;;;;;;;;;;;;;;;;;;;;;;;;;;;;;;;;;;;;;;;;;;;;;;;;;;;;;;;;;;;;;;;;;;;;;;;;;;;;;;;;;;;;;;;;;;;;;;;;;;;;;;;;;;;;;;;;;;;;;;;;;;;;;;;;;;;;;;;;;;;;;;;;;;;;;;;;;;;;;;;;;;;;;;;;;;;;;;;;;;;
12;1150071.0;7527.0;FALSE;7;verwarring;De fout op de poster zorgde voor veel <b>verwarring</b>.;Tegenstrijdige berichten leiden tot <b>verwarring</b>.;confusion;De fout op de poster zorgde voor veel <b>verwarring</b>.;FALSE;934.1;0.3;;;;;;;;;;;;;;;;;;;;;;;;;;;;;;;;;;;;;;;;;;;;;;;;;;;;;;;;;;;;;;;;;;;;;;;;;;;;;;;;;;;;;;;;;;;;;;;;;;;;;;;;;;;;;;;;;;;;;;;;;;;;;;;;;;;;;;;;;;;;;;;;;;;;;;;;;;;;;;;;;;;;;;;;;;;;;;;;;;;;;;;;;;;;;;;;;;;;;;
13;1159461.0;1307.0;TRUE;6;vriendschap;Deze <b>vriendschap</b> is erg belangrijk voor mij.;Een <b>vriendschap</b> moet onderhouden worden.;friendship;Deze <b>vriendschap</b> is erg belangrijk voor mij.;FALSE;836.6;0.250390625;;;;;;;;;;;;;;;;;;;;;;;;;;;;;;;;;;;;;;;;;;;;;;;;;;;;;;;;;;;;;;;;;;;;;;;;;;;;;;;;;;;;;;;;;;;;;;;;;;;;;;;;;;;;;;;;;;;;;;;;;;;;;;;;;;;;;;;;;;;;;;;;;;;;;;;;;;;;;;;;;;;;;;;;;;;;;;;;;;;;;;;;;;;;;;;;;;;;;;
14;1164583.0;674.0;TRUE;7;verwarring;De fout op de poster zorgde voor veel <b>verwarring</b>.;Tegenstrijdige berichten leiden tot <b>verwarring</b>.;confusion;De fout op de poster zorgde voor veel <b>verwarring</b>.;FALSE;934.1;0.250390625;;;;;;;;;;;;;;;;;;;;;;;;;;;;;;;;;;;;;;;;;;;;;;;;;;;;;;;;;;;;;;;;;;;;;;;;;;;;;;;;;;;;;;;;;;;;;;;;;;;;;;;;;;;;;;;;;;;;;;;;;;;;;;;;;;;;;;;;;;;;;;;;;;;;;;;;;;;;;;;;;;;;;;;;;;;;;;;;;;;;;;;;;;;;;;;;;;;;;;
15;1169169.0;4381.0;TRUE;8;scheren;Ik moet iedere morgen opnieuw de stoppels van mijn gezicht <b>scheren</b>.;Mijn vader heeft me geleerd hoe ik moet <b>scheren</b>.;shave;to shave<b>;Ik moet iedere morgen opnieuw de stoppels van mijn gezicht <b>scheren</b>.;FALSE;1285.1;0.3;;;;;;;;;;;;;;;;;;;;;;;;;;;;;;;;;;;;;;;;;;;;;;;;;;;;;;;;;;;;;;;;;;;;;;;;;;;;;;;;;;;;;;;;;;;;;;;;;;;;;;;;;;;;;;;;;;;;;;;;;;;;;;;;;;;;;;;;;;;;;;;;;;;;;;;;;;;;;;;;;;;;;;;;;;;;;;;;;;;;;;;;;;;;;;;;;;;;;
16;1175910.0;4044.0;TRUE;9;kraag;De <b>kraag</b> van mijn overhemd is te strak.;Zij greep hem bij de <b>kraag</b> toen hij iets verkeerd deed.;collar;De <b>kraag</b> van mijn overhemd is te strak.;FALSE;739.1;0.3;;;;;;;;;;;;;;;;;;;;;;;;;;;;;;;;;;;;;;;;;;;;;;;;;;;;;;;;;;;;;;;;;;;;;;;;;;;;;;;;;;;;;;;;;;;;;;;;;;;;;;;;;;;;;;;;;;;;;;;;;;;;;;;;;;;;;;;;;;;;;;;;;;;;;;;;;;;;;;;;;;;;;;;;;;;;;;;;;;;;;;;;;;;;;;;;;;;;;;
17;1182300.0;1983.0;TRUE;8;scheren;Ik moet iedere morgen opnieuw de stoppels van mijn gezicht <b>scheren</b>.;Mijn vader heeft me geleerd hoe ik moet <b>scheren</b>.;shave;to shave<b>;Ik moet iedere morgen opnieuw de stoppels van mijn gezicht <b>scheren</b>.;FALSE;1285.1;0.250390625;;;;;;;;;;;;;;;;;;;;;;;;;;;;;;;;;;;;;;;;;;;;;;;;;;;;;;;;;;;;;;;;;;;;;;;;;;;;;;;;;;;;;;;;;;;;;;;;;;;;;;;;;;;;;;;;;;;;;;;;;;;;;;;;;;;;;;;;;;;;;;;;;;;;;;;;;;;;;;;;;;;;;;;;;;;;;;;;;;;;;;;;;;;;;;;;;;;;;
18;1186385.0;1237.0;TRUE;9;kraag;De <b>kraag</b> van mijn overhemd is te strak.;Zij greep hem bij de <b>kraag</b> toen hij iets verkeerd deed.;collar;De <b>kraag</b> van mijn overhemd is te strak.;FALSE;739.1;0.250390625;;;;;;;;;;;;;;;;;;;;;;;;;;;;;;;;;;;;;;;;;;;;;;;;;;;;;;;;;;;;;;;;;;;;;;;;;;;;;;;;;;;;;;;;;;;;;;;;;;;;;;;;;;;;;;;;;;;;;;;;;;;;;;;;;;;;;;;;;;;;;;;;;;;;;;;;;;;;;;;;;;;;;;;;;;;;;;;;;;;;;;;;;;;;;;;;;;;;;;
19;1189974.0;2592.0;TRUE;10;onverschillig;Ik ben <b>onverschillig</b> tegenover de mening van anderen.;Ze leek heel <b>onverschillig</b>,maar dat viel uiteindelijk mee.;indifferent;Ik ben <b>onverschillig</b> tegenover de mening van anderen.;FALSE;1012.1;0.3;;;;;;;;;;;;;;;;;;;;;;;;;;;;;;;;;;;;;;;;;;;;;;;;;;;;;;;;;;;;;;;;;;;;;;;;;;;;;;;;;;;;;;;;;;;;;;;;;;;;;;;;;;;;;;;;;;;;;;;;;;;;;;;;;;;;;;;;;;;;;;;;;;;;;;;;;;;;;;;;;;;;;;;;;;;;;;;;;;;;;;;;;;;;;;;;;;;;;;
20;1197751.0;1945.0;TRUE;11;blinken;Nieuwe munten <b>blinken</b> nog.;De sterren <b>blinken</b> in de nacht.;shine;to shine;Nieuwe munten <b>blinken</b> nog.;FALSE;485.6;0.3;;;;;;;;;;;;;;;;;;;;;;;;;;;;;;;;;;;;;;;;;;;;;;;;;;;;;;;;;;;;;;;;;;;;;;;;;;;;;;;;;;;;;;;;;;;;;;;;;;;;;;;;;;;;;;;;;;;;;;;;;;;;;;;;;;;;;;;;;;;;;;;;;;;;;;;;;;;;;;;;;;;;;;;;;;;;;;;;;;;;;;;;;;;;;;;;;;;;;
21;1201858.0;1858.0;TRUE;10;onverschillig;Ik ben <b>onverschillig</b> tegenover de mening van anderen.;Ze leek heel <b>onverschillig</b>,maar dat viel uiteindelijk mee.;indifferent;Ik ben <b>onverschillig</b> tegenover de mening van anderen.;FALSE;1012.1;0.250390625;;;;;;;;;;;;;;;;;;;;;;;;;;;;;;;;;;;;;;;;;;;;;;;;;;;;;;;;;;;;;;;;;;;;;;;;;;;;;;;;;;;;;;;;;;;;;;;;;;;;;;;;;;;;;;;;;;;;;;;;;;;;;;;;;;;;;;;;;;;;;;;;;;;;;;;;;;;;;;;;;;;;;;;;;;;;;;;;;;;;;;;;;;;;;;;;;;;;;;
22;1207416.0;1423.0;TRUE;11;blinken;Nieuwe munten <b>blinken</b> nog.;De sterren <b>blinken</b> in de nacht.;shine;to shine;Nieuwe munten <b>blinken</b> nog.;FALSE;485.6;0.250390625;;;;;;;;;;;;;;;;;;;;;;;;;;;;;;;;;;;;;;;;;;;;;;;;;;;;;;;;;;;;;;;;;;;;;;;;;;;;;;;;;;;;;;;;;;;;;;;;;;;;;;;;;;;;;;;;;;;;;;;;;;;;;;;;;;;;;;;;;;;;;;;;;;;;;;;;;;;;;;;;;;;;;;;;;;;;;;;;;;;;;;;;;;;;;;;;;;;;;
23;1211011.0;4403.0;TRUE;1;verschrikkelijk;Ik vind het <b>verschrikkelijk</b> om voor een groep te spreken.;Het was een <b>verschrikkelijke</b> dag.;terrible;awful;horrible;dreadful;verschrikkelijk;FALSE;1090.1;0.29960937499999996;;;;;;;;;;;;;;;;;;;;;;;;;;;;;;;;;;;;;;;;;;;;;;;;;;;;;;;;;;;;;;;;;;;;;;;;;;;;;;;;;;;;;;;;;;;;;;;;;;;;;;;;;;;;;;;;;;;;;;;;;;;;;;;;;;;;;;;;;;;;;;;;;;;;;;;;;;;;;;;;;;;;;;;;;;;;;;;;;;;;;;;;;;;;;;;;;;;
24;1218279.0;1939.0;TRUE;12;eenzaamheid;Tijdens de pandemie hadden veel studenten last van <b>eenzaamheid</b>.;<b>Eenzaamheid</b> is een groot probleem onder ouderen.;loneliness;solitude;Tijdens de pandemie hadden veel studenten last van <b>eenzaamheid</b>.;FALSE;1207.1;0.3;;;;;;;;;;;;;;;;;;;;;;;;;;;;;;;;;;;;;;;;;;;;;;;;;;;;;;;;;;;;;;;;;;;;;;;;;;;;;;;;;;;;;;;;;;;;;;;;;;;;;;;;;;;;;;;;;;;;;;;;;;;;;;;;;;;;;;;;;;;;;;;;;;;;;;;;;;;;;;;;;;;;;;;;;;;;;;;;;;;;;;;;;;;;;;;;;;;;;
25;1224390.0;1136.0;TRUE;2;zelfstandig;Het is prettig als werknemers <b>zelfstandig</b> kunnen werken.;Ik vond het in het begin moeilijk om <b>zelfstandig</b> te wonen.;independent;independently;zelfstandig;FALSE;1070.6;0.20078125;;;;;;;;;;;;;;;;;;;;;;;;;;;;;;;;;;;;;;;;;;;;;;;;;;;;;;;;;;;;;;;;;;;;;;;;;;;;;;;;;;;;;;;;;;;;;;;;;;;;;;;;;;;;;;;;;;;;;;;;;;;;;;;;;;;;;;;;;;;;;;;;;;;;;;;;;;;;;;;;;;;;;;;;;;;;;;;;;;;;;;;;;;;;;;;;;;;;;
26;1228977.0;1184.0;TRUE;12;eenzaamheid;Tijdens de pandemie hadden veel studenten last van <b>eenzaamheid</b>.;<b>Eenzaamheid</b> is een groot probleem onder ouderen.;loneliness;solitude;Tijdens de pandemie hadden veel studenten last van <b>eenzaamheid</b>.;FALSE;1207.1;0.250390625;;;;;;;;;;;;;;;;;;;;;;;;;;;;;;;;;;;;;;;;;;;;;;;;;;;;;;;;;;;;;;;;;;;;;;;;;;;;;;;;;;;;;;;;;;;;;;;;;;;;;;;;;;;;;;;;;;;;;;;;;;;;;;;;;;;;;;;;;;;;;;;;;;;;;;;;;;;;;;;;;;;;;;;;;;;;;;;;;;;;;;;;;;;;;;;;;;;;;
27;1233475.0;1163.0;TRUE;3;gewoonte;Ik heb de slechte <b>gewoonte</b> om te laat te komen.;Het is een goede <b>gewoonte</b> om je handen te wassen voor het eten.;habit;gewoonte;FALSE;895.1;0.20078125;;;;;;;;;;;;;;;;;;;;;;;;;;;;;;;;;;;;;;;;;;;;;;;;;;;;;;;;;;;;;;;;;;;;;;;;;;;;;;;;;;;;;;;;;;;;;;;;;;;;;;;;;;;;;;;;;;;;;;;;;;;;;;;;;;;;;;;;;;;;;;;;;;;;;;;;;;;;;;;;;;;;;;;;;;;;;;;;;;;;;;;;;;;;;;;;;;;;;;
28;1237794.0;9198.0;FALSE;13;tevreden;Mijn baas was erg <b>tevreden</b> over het resultaat.;Hij is niet snel <b>tevreden</b>,hij is erg kritisch.;satisfied;Mijn baas was erg <b>tevreden</b> over het resultaat.;FALSE;875.6;0.3;;;;;;;;;;;;;;;;;;;;;;;;;;;;;;;;;;;;;;;;;;;;;;;;;;;;;;;;;;;;;;;;;;;;;;;;;;;;;;;;;;;;;;;;;;;;;;;;;;;;;;;;;;;;;;;;;;;;;;;;;;;;;;;;;;;;;;;;;;;;;;;;;;;;;;;;;;;;;;;;;;;;;;;;;;;;;;;;;;;;;;;;;;;;;;;;;;;;;;
29;1248868.0;12967.0;FALSE;14;moed;Er is veel <b>moed</b> voor nodig om het uit te maken.;Ik heb de <b>moed</b> niet om het te zeggen.;courage;Er is veel <b>moed</b> voor nodig om het uit te maken.;FALSE;895.1;0.3;;;;;;;;;;;;;;;;;;;;;;;;;;;;;;;;;;;;;;;;;;;;;;;;;;;;;;;;;;;;;;;;;;;;;;;;;;;;;;;;;;;;;;;;;;;;;;;;;;;;;;;;;;;;;;;;;;;;;;;;;;;;;;;;;;;;;;;;;;;;;;;;;;;;;;;;;;;;;;;;;;;;;;;;;;;;;;;;;;;;;;;;;;;;;;;;;;;;;;
30;1263785.0;2033.0;TRUE;13;tevreden;Mijn baas was erg <b>tevreden</b> over het resultaat.;Hij is niet snel <b>tevreden</b>,hij is erg kritisch.;satisfied;Mijn baas was erg <b>tevreden</b> over het resultaat.;FALSE;875.6;0.250390625;;;;;;;;;;;;;;;;;;;;;;;;;;;;;;;;;;;;;;;;;;;;;;;;;;;;;;;;;;;;;;;;;;;;;;;;;;;;;;;;;;;;;;;;;;;;;;;;;;;;;;;;;;;;;;;;;;;;;;;;;;;;;;;;;;;;;;;;;;;;;;;;;;;;;;;;;;;;;;;;;;;;;;;;;;;;;;;;;;;;;;;;;;;;;;;;;;;;;;
31;1269644.0;2685.0;FALSE;14;moed;Er is veel <b>moed</b> voor nodig om het uit te maken.;Ik heb de <b>moed</b> niet om het te zeggen.;courage;Er is veel <b>moed</b> voor nodig om het uit te maken.;FALSE;895.1;0.349609375;;;;;;;;;;;;;;;;;;;;;;;;;;;;;;;;;;;;;;;;;;;;;;;;;;;;;;;;;;;;;;;;;;;;;;;;;;;;;;;;;;;;;;;;;;;;;;;;;;;;;;;;;;;;;;;;;;;;;;;;;;;;;;;;;;;;;;;;;;;;;;;;;;;;;;;;;;;;;;;;;;;;;;;;;;;;;;;;;;;;;;;;;;;;;;;;;;;;;;
32;1276317.0;1556.0;TRUE;5;bijeenkomst;SNIC is een <b>bijeenkomst</b> met studenten van verschillende opleidingen.;De <b>bijeenkomst</b> begint om 10 uur.;meeting;gathering;bijeenkomst;FALSE;1304.6;0.20078125;;;;;;;;;;;;;;;;;;;;;;;;;;;;;;;;;;;;;;;;;;;;;;;;;;;;;;;;;;;;;;;;;;;;;;;;;;;;;;;;;;;;;;;;;;;;;;;;;;;;;;;;;;;;;;;;;;;;;;;;;;;;;;;;;;;;;;;;;;;;;;;;;;;;;;;;;;;;;;;;;;;;;;;;;;;;;;;;;;;;;;;;;;;;;;;;;;;;;
33;1280315.0;1666.0;TRUE;4;verwondering;Kinderen zitten vol <b>verwondering</b>.;Ik sta vol <b>verwondering</b> naar de sterren te kijken.;wonder;surprise;verwondering;FALSE;622.1;0.20078125;;;;;;;;;;;;;;;;;;;;;;;;;;;;;;;;;;;;;;;;;;;;;;;;;;;;;;;;;;;;;;;;;;;;;;;;;;;;;;;;;;;;;;;;;;;;;;;;;;;;;;;;;;;;;;;;;;;;;;;;;;;;;;;;;;;;;;;;;;;;;;;;;;;;;;;;;;;;;;;;;;;;;;;;;;;;;;;;;;;;;;;;;;;;;;;;;;;;;
34;1284245.0;4802.0;TRUE;15;nieuwsgierig;Ik was vroeger een heel <b>nieuwsgierig</b> kind.;Ik ben <b>nieuwsgierig</b> naar de resultaten van het onderzoek.;curious;Ik was vroeger een heel <b>nieuwsgierig</b> kind.;FALSE;797.6;0.3;;;;;;;;;;;;;;;;;;;;;;;;;;;;;;;;;;;;;;;;;;;;;;;;;;;;;;;;;;;;;;;;;;;;;;;;;;;;;;;;;;;;;;;;;;;;;;;;;;;;;;;;;;;;;;;;;;;;;;;;;;;;;;;;;;;;;;;;;;;;;;;;;;;;;;;;;;;;;;;;;;;;;;;;;;;;;;;;;;;;;;;;;;;;;;;;;;;;;;
35;1292010.0;4613.0;TRUE;14;moed;Er is veel <b>moed</b> voor nodig om het uit te maken.;Ik heb de <b>moed</b> niet om het te zeggen.;courage;Er is veel <b>moed</b> voor nodig om het uit te maken.;FALSE;895.1;0.39921874999999996;;;;;;;;;;;;;;;;;;;;;;;;;;;;;;;;;;;;;;;;;;;;;;;;;;;;;;;;;;;;;;;;;;;;;;;;;;;;;;;;;;;;;;;;;;;;;;;;;;;;;;;;;;;;;;;;;;;;;;;;;;;;;;;;;;;;;;;;;;;;;;;;;;;;;;;;;;;;;;;;;;;;;;;;;;;;;;;;;;;;;;;;;;;;;;;;;;;;;;
36;1299473.0;1170.0;TRUE;15;nieuwsgierig;Ik was vroeger een heel <b>nieuwsgierig</b> kind.;Ik ben <b>nieuwsgierig</b> naar de resultaten van het onderzoek.;curious;Ik was vroeger een heel <b>nieuwsgierig</b> kind.;FALSE;797.6;0.250390625;;;;;;;;;;;;;;;;;;;;;;;;;;;;;;;;;;;;;;;;;;;;;;;;;;;;;;;;;;;;;;;;;;;;;;;;;;;;;;;;;;;;;;;;;;;;;;;;;;;;;;;;;;;;;;;;;;;;;;;;;;;;;;;;;;;;;;;;;;;;;;;;;;;;;;;;;;;;;;;;;;;;;;;;;;;;;;;;;;;;;;;;;;;;;;;;;;;;;;
37;1303395.0;2982.0;TRUE;1;verschrikkelijk;Ik vind het <b>verschrikkelijk</b> om voor een groep te spreken.;Het was een <b>verschrikkelijke</b> dag.;terrible;awful;horrible;dreadful;Ik vind het <b>verschrikkelijk</b> om voor een groep te spreken.;FALSE;1090.1;0.2749999999999999;;;;;;;;;;;;;;;;;;;;;;;;;;;;;;;;;;;;;;;;;;;;;;;;;;;;;;;;;;;;;;;;;;;;;;;;;;;;;;;;;;;;;;;;;;;;;;;;;;;;;;;;;;;;;;;;;;;;;;;;;;;;;;;;;;;;;;;;;;;;;;;;;;;;;;;;;;;;;;;;;;;;;;;;;;;;;;;;;;;;;;;;;;;;;;;;;;;
38;1309646.0;1016.0;TRUE;6;vriendschap;Deze <b>vriendschap</b> is erg belangrijk voor mij.;Een <b>vriendschap</b> moet onderhouden worden.;friendship;vriendschap;FALSE;836.6;0.20078125;;;;;;;;;;;;;;;;;;;;;;;;;;;;;;;;;;;;;;;;;;;;;;;;;;;;;;;;;;;;;;;;;;;;;;;;;;;;;;;;;;;;;;;;;;;;;;;;;;;;;;;;;;;;;;;;;;;;;;;;;;;;;;;;;;;;;;;;;;;;;;;;;;;;;;;;;;;;;;;;;;;;;;;;;;;;;;;;;;;;;;;;;;;;;;;;;;;;;;
39;0.0;1317942.0;TRUE;1;verschrikkelijk;Ik vind het <b>verschrikkelijk</b> om voor een groep te spreken.;Het was een <b>verschrikkelijke</b> dag.;terrible;awful;horrible;dreadful;Ik vind het <b>verschrikkelijk</b> om voor een groep te spreken.;FALSE;1090.1;0.3;;;;;;;;;;;;;;;;;;;;;;;;;;;;;;;;;;;;;;;;;;;;;;;;;;;;;;;;;;;;;;;;;;;;;;;;;;;;;;;;;;;;;;;;;;;;;;;;;;;;;;;;;;;;;;;;;;;;;;;;;;;;;;;;;;;;;;;;;;;;;;;;;;;;;;;;;;;;;;;;;;;;;;;;;;;;;;;;;;;;;;;;;;;;;;;;;;;
40;1320918.0;10470.0;FALSE;7;verwarring;De fout op de poster zorgde voor veel <b>verwarring</b>.;Tegenstrijdige berichten leiden tot <b>verwarring</b>.;confusion;verwarring;FALSE;934.1;0.29999999999999993;;;;;;;;;;;;;;;;;;;;;;;;;;;;;;;;;;;;;;;;;;;;;;;;;;;;;;;;;;;;;;;;;;;;;;;;;;;;;;;;;;;;;;;;;;;;;;;;;;;;;;;;;;;;;;;;;;;;;;;;;;;;;;;;;;;;;;;;;;;;;;;;;;;;;;;;;;;;;;;;;;;;;;;;;;;;;;;;;;;;;;;;;;;;;;;;;;;;;;
41;1333528.0;1267.0;TRUE;14;moed;Er is veel <b>moed</b> voor nodig om het uit te maken.;Ik heb de <b>moed</b> niet om het te zeggen.;courage;Ik heb de <b>moed</b> niet om het te zeggen.;FALSE;895.1;0.398828125;;;;;;;;;;;;;;;;;;;;;;;;;;;;;;;;;;;;;;;;;;;;;;;;;;;;;;;;;;;;;;;;;;;;;;;;;;;;;;;;;;;;;;;;;;;;;;;;;;;;;;;;;;;;;;;;;;;;;;;;;;;;;;;;;;;;;;;;;;;;;;;;;;;;;;;;;;;;;;;;;;;;;;;;;;;;;;;;;;;;;;;;;;;;;;;;;;;;;;
42;1337426.0;1085.0;TRUE;9;kraag;De <b>kraag</b> van mijn overhemd is te strak.;Zij greep hem bij de <b>kraag</b> toen hij iets verkeerd deed.;collar;kraag;FALSE;739.1;0.20078125;;;;;;;;;;;;;;;;;;;;;;;;;;;;;;;;;;;;;;;;;;;;;;;;;;;;;;;;;;;;;;;;;;;;;;;;;;;;;;;;;;;;;;;;;;;;;;;;;;;;;;;;;;;;;;;;;;;;;;;;;;;;;;;;;;;;;;;;;;;;;;;;;;;;;;;;;;;;;;;;;;;;;;;;;;;;;;;;;;;;;;;;;;;;;;;;;;;;;;
43;1340791.0;1213.0;TRUE;8;scheren;Ik moet iedere morgen opnieuw de stoppels van mijn gezicht <b>scheren</b>.;Mijn vader heeft me geleerd hoe ik moet <b>scheren</b>.;shave;to shave<b>;scheren;FALSE;1285.1;0.20078125;;;;;;;;;;;;;;;;;;;;;;;;;;;;;;;;;;;;;;;;;;;;;;;;;;;;;;;;;;;;;;;;;;;;;;;;;;;;;;;;;;;;;;;;;;;;;;;;;;;;;;;;;;;;;;;;;;;;;;;;;;;;;;;;;;;;;;;;;;;;;;;;;;;;;;;;;;;;;;;;;;;;;;;;;;;;;;;;;;;;;;;;;;;;;;;;;;;;;
44;1344399.0;1295.0;FALSE;11;blinken;Nieuwe munten <b>blinken</b> nog.;De sterren <b>blinken</b> in de nacht.;shine;to shine;blinken;FALSE;485.6;0.29999999999999993;;;;;;;;;;;;;;;;;;;;;;;;;;;;;;;;;;;;;;;;;;;;;;;;;;;;;;;;;;;;;;;;;;;;;;;;;;;;;;;;;;;;;;;;;;;;;;;;;;;;;;;;;;;;;;;;;;;;;;;;;;;;;;;;;;;;;;;;;;;;;;;;;;;;;;;;;;;;;;;;;;;;;;;;;;;;;;;;;;;;;;;;;;;;;;;;;;;;;
45;1347816.0;2887.0;TRUE;10;onverschillig;Ik ben <b>onverschillig</b> tegenover de mening van anderen.;Ze leek heel <b>onverschillig</b>,maar dat viel uiteindelijk mee.;indifferent;onverschillig;FALSE;1012.1;275;;;;;;;;;;;;;;;;;;;;;;;;;;;;;;;;;;;;;;;;;;;;;;;;;;;;;;;;;;;;;;;;;;;;;;;;;;;;;;;;;;;;;;;;;;;;;;;;;;;;;;;;;;;;;;;;;;;;;;;;;;;;;;;;;;;;;;;;;;;;;;;;;;;;;;;;;;;;;;;;;;;;;;;;;;;;;;;;;;;;;;;;;;;;;;;;;;;;;;
46;1355913.0;990.0;TRUE;12;eenzaamheid;Tijdens de pandemie hadden veel studenten last van <b>eenzaamheid</b>.;<b>Eenzaamheid</b> is een groot probleem onder ouderen.;loneliness;solitude;eenzaamheid;FALSE;1207.1;0.20078125;;;;;;;;;;;;;;;;;;;;;;;;;;;;;;;;;;;;;;;;;;;;;;;;;;;;;;;;;;;;;;;;;;;;;;;;;;;;;;;;;;;;;;;;;;;;;;;;;;;;;;;;;;;;;;;;;;;;;;;;;;;;;;;;;;;;;;;;;;;;;;;;;;;;;;;;;;;;;;;;;;;;;;;;;;;;;;;;;;;;;;;;;;;;;;;;;;;;;
47;1360037.0;8880.0;TRUE;16;ongemakkelijk;Het was een beetje <b>ongemakkelijk</b> op de dansvloer.;Ik voel me <b>ongemakkelijk</b> bij dit gesprek.;awkward;Het was een beetje <b>ongemakkelijk</b> op de dansvloer.;FALSE;934.1;0.3;;;;;;;;;;;;;;;;;;;;;;;;;;;;;;;;;;;;;;;;;;;;;;;;;;;;;;;;;;;;;;;;;;;;;;;;;;;;;;;;;;;;;;;;;;;;;;;;;;;;;;;;;;;;;;;;;;;;;;;;;;;;;;;;;;;;;;;;;;;;;;;;;;;;;;;;;;;;;;;;;;;;;;;;;;;;;;;;;;;;;;;;;;;;;;;;;;;;;;
48;1372515.0;4529.0;TRUE;17;beschrijven;Het is lastig om de smaak van een gerecht te <b>beschrijven</b>.;Kun je proberen je gevoelens te <b>beschrijven</b>?;describe;to describe;Het is lastig om de smaak van een gerecht te <b>beschrijven</b>.;FALSE;1090.1;0.3;;;;;;;;;;;;;;;;;;;;;;;;;;;;;;;;;;;;;;;;;;;;;;;;;;;;;;;;;;;;;;;;;;;;;;;;;;;;;;;;;;;;;;;;;;;;;;;;;;;;;;;;;;;;;;;;;;;;;;;;;;;;;;;;;;;;;;;;;;;;;;;;;;;;;;;;;;;;;;;;;;;;;;;;;;;;;;;;;;;;;;;;;;;;;;;;;;;;;
49;1380721.0;3170.0;TRUE;16;ongemakkelijk;Het was een beetje <b>ongemakkelijk</b> op de dansvloer.;Ik voel me <b>ongemakkelijk</b> bij dit gesprek.;awkward;Het was een beetje <b>ongemakkelijk</b> op de dansvloer.;FALSE;934.1;0.266015625;;;;;;;;;;;;;;;;;;;;;;;;;;;;;;;;;;;;;;;;;;;;;;;;;;;;;;;;;;;;;;;;;;;;;;;;;;;;;;;;;;;;;;;;;;;;;;;;;;;;;;;;;;;;;;;;;;;;;;;;;;;;;;;;;;;;;;;;;;;;;;;;;;;;;;;;;;;;;;;;;;;;;;;;;;;;;;;;;;;;;;;;;;;;;;;;;;;;;;
50;1387107.0;1128.0;TRUE;17;beschrijven;Het is lastig om de smaak van een gerecht te <b>beschrijven</b>.;Kun je proberen je gevoelens te <b>beschrijven</b>?;describe;to describe;Het is lastig om de smaak van een gerecht te <b>beschrijven</b>.;FALSE;1090.1;0.250390625;;;;;;;;;;;;;;;;;;;;;;;;;;;;;;;;;;;;;;;;;;;;;;;;;;;;;;;;;;;;;;;;;;;;;;;;;;;;;;;;;;;;;;;;;;;;;;;;;;;;;;;;;;;;;;;;;;;;;;;;;;;;;;;;;;;;;;;;;;;;;;;;;;;;;;;;;;;;;;;;;;;;;;;;;;;;;;;;;;;;;;;;;;;;;;;;;;;;;
51;1390976.0;1352.0;TRUE;14;moed;Er is veel <b>moed</b> voor nodig om het uit te maken.;Ik heb de <b>moed</b> niet om het te zeggen.;courage;Ik heb de <b>moed</b> niet om het te zeggen.;TRUE;895.1;0.34921875;;;;;;;;;;;;;;;;;;;;;;;;;;;;;;;;;;;;;;;;;;;;;;;;;;;;;;;;;;;;;;;;;;;;;;;;;;;;;;;;;;;;;;;;;;;;;;;;;;;;;;;;;;;;;;;;;;;;;;;;;;;;;;;;;;;;;;;;;;;;;;;;;;;;;;;;;;;;;;;;;;;;;;;;;;;;;;;;;;;;;;;;;;;;;;;;;;;;;;
52;1394997.0;5327.0;TRUE;18;vreugde;Het optreden bracht haar intense <b>vreugde</b>.;De <b>vreugde</b> van kinderen is aanstekelijk.;joy;Het optreden bracht haar intense <b>vreugde</b>.;FALSE;778.1;0.3;;;;;;;;;;;;;;;;;;;;;;;;;;;;;;;;;;;;;;;;;;;;;;;;;;;;;;;;;;;;;;;;;;;;;;;;;;;;;;;;;;;;;;;;;;;;;;;;;;;;;;;;;;;;;;;;;;;;;;;;;;;;;;;;;;;;;;;;;;;;;;;;;;;;;;;;;;;;;;;;;;;;;;;;;;;;;;;;;;;;;;;;;;;;;;;;;;;;;;
53;1402533.0;3239.0;TRUE;7;verwarring;De fout op de poster zorgde voor veel <b>verwarring</b>.;Tegenstrijdige berichten leiden tot <b>verwarring</b>.;confusion;De fout op de poster zorgde voor veel <b>verwarring</b>.;FALSE;934.1;0.3003906249999999;;;;;;;;;;;;;;;;;;;;;;;;;;;;;;;;;;;;;;;;;;;;;;;;;;;;;;;;;;;;;;;;;;;;;;;;;;;;;;;;;;;;;;;;;;;;;;;;;;;;;;;;;;;;;;;;;;;;;;;;;;;;;;;;;;;;;;;;;;;;;;;;;;;;;;;;;;;;;;;;;;;;;;;;;;;;;;;;;;;;;;;;;;;;;;;;;;;;;;
54;1408757.0;1075.0;FALSE;18;vreugde;Het optreden bracht haar intense <b>vreugde</b>.;De <b>vreugde</b> van kinderen is aanstekelijk.;joy;Het optreden bracht haar intense <b>vreugde</b>.;FALSE;778.1;0.349609375;;;;;;;;;;;;;;;;;;;;;;;;;;;;;;;;;;;;;;;;;;;;;;;;;;;;;;;;;;;;;;;;;;;;;;;;;;;;;;;;;;;;;;;;;;;;;;;;;;;;;;;;;;;;;;;;;;;;;;;;;;;;;;;;;;;;;;;;;;;;;;;;;;;;;;;;;;;;;;;;;;;;;;;;;;;;;;;;;;;;;;;;;;;;;;;;;;;;;;
55;1415129.0;3187.0;TRUE;13;tevreden;Mijn baas was erg <b>tevreden</b> over het resultaat.;Hij is niet snel <b>tevreden</b>,hij is erg kritisch.;satisfied;tevreden;FALSE;875.6;0.29999999999999993;;;;;;;;;;;;;;;;;;;;;;;;;;;;;;;;;;;;;;;;;;;;;;;;;;;;;;;;;;;;;;;;;;;;;;;;;;;;;;;;;;;;;;;;;;;;;;;;;;;;;;;;;;;;;;;;;;;;;;;;;;;;;;;;;;;;;;;;;;;;;;;;;;;;;;;;;;;;;;;;;;;;;;;;;;;;;;;;;;;;;;;;;;;;;;;;;;;;;;
56;1422257.0;1240.0;TRUE;11;blinken;Nieuwe munten <b>blinken</b> nog.;De sterren <b>blinken</b> in de nacht.;shine;to shine;Nieuwe munten <b>blinken</b> nog.;FALSE;485.6;0.250390625;;;;;;;;;;;;;;;;;;;;;;;;;;;;;;;;;;;;;;;;;;;;;;;;;;;;;;;;;;;;;;;;;;;;;;;;;;;;;;;;;;;;;;;;;;;;;;;;;;;;;;;;;;;;;;;;;;;;;;;;;;;;;;;;;;;;;;;;;;;;;;;;;;;;;;;;;;;;;;;;;;;;;;;;;;;;;;;;;;;;;;;;;;;;;;;;;;;;;
57;1425679.0;1456.0;TRUE;19;spontaan;Ik vind het leuk om <b>spontaan</b> af te spreken.;Jij bent heel <b>spontaan</b>,dat is leuk.;spontaneous;Ik vind het leuk om <b>spontaan</b> af te spreken.;FALSE;817.1;0.3;;;;;;;;;;;;;;;;;;;;;;;;;;;;;;;;;;;;;;;;;;;;;;;;;;;;;;;;;;;;;;;;;;;;;;;;;;;;;;;;;;;;;;;;;;;;;;;;;;;;;;;;;;;;;;;;;;;;;;;;;;;;;;;;;;;;;;;;;;;;;;;;;;;;;;;;;;;;;;;;;;;;;;;;;;;;;;;;;;;;;;;;;;;;;;;;;;;;;;
58;1430722.0;1065.0;TRUE;18;vreugde;Het optreden bracht haar intense <b>vreugde</b>.;De <b>vreugde</b> van kinderen is aanstekelijk.;joy;Het optreden bracht haar intense <b>vreugde</b>.;FALSE;778.1;0.34921875;;;;;;;;;;;;;;;;;;;;;;;;;;;;;;;;;;;;;;;;;;;;;;;;;;;;;;;;;;;;;;;;;;;;;;;;;;;;;;;;;;;;;;;;;;;;;;;;;;;;;;;;;;;;;;;;;;;;;;;;;;;;;;;;;;;;;;;;;;;;;;;;;;;;;;;;;;;;;;;;;;;;;;;;;;;;;;;;;;;;;;;;;;;;;;;;;;;;;;
59;1433989.0;912.0;TRUE;19;spontaan;Ik vind het leuk om <b>spontaan</b> af te spreken.;Jij bent heel <b>spontaan</b>,dat is leuk.;spontaneous;Ik vind het leuk om <b>spontaan</b> af te spreken.;FALSE;817.1;0.250390625;;;;;;;;;;;;;;;;;;;;;;;;;;;;;;;;;;;;;;;;;;;;;;;;;;;;;;;;;;;;;;;;;;;;;;;;;;;;;;;;;;;;;;;;;;;;;;;;;;;;;;;;;;;;;;;;;;;;;;;;;;;;;;;;;;;;;;;;;;;;;;;;;;;;;;;;;;;;;;;;;;;;;;;;;;;;;;;;;;;;;;;;;;;;;;;;;;;;;;
60;1440107.0;4439.0;TRUE;15;nieuwsgierig;Ik was vroeger een heel <b>nieuwsgierig</b> kind.;Ik ben <b>nieuwsgierig</b> naar de resultaten van het onderzoek.;curious;nieuwsgierig;FALSE;797.6;0.29999999999999993;;;;;;;;;;;;;;;;;;;;;;;;;;;;;;;;;;;;;;;;;;;;;;;;;;;;;;;;;;;;;;;;;;;;;;;;;;;;;;;;;;;;;;;;;;;;;;;;;;;;;;;;;;;;;;;;;;;;;;;;;;;;;;;;;;;;;;;;;;;;;;;;;;;;;;;;;;;;;;;;;;;;;;;;;;;;;;;;;;;;;;;;;;;;;;;;;;;;;;
61;1448091.0;10351.0;FALSE;20;begroeten;Wij <b>begroeten</b> elkaar altijd als we thuis komen.;Wat is de beste manier om een kennis te <b>begroeten</b>?;greet;to greet;Wij <b>begroeten</b> elkaar altijd als we thuis komen.;FALSE;895.1;0.3;;;;;;;;;;;;;;;;;;;;;;;;;;;;;;;;;;;;;;;;;;;;;;;;;;;;;;;;;;;;;;;;;;;;;;;;;;;;;;;;;;;;;;;;;;;;;;;;;;;;;;;;;;;;;;;;;;;;;;;;;;;;;;;;;;;;;;;;;;;;;;;;;;;;;;;;;;;;;;;;;;;;;;;;;;;;;;;;;;;;;;;;;;;;;;;;;;;;;
62;1462115.0;2289.0;TRUE;21;overdrijven;Sommige mensen vinden het leuk om te <b>overdrijven</b>,ik vind het verwarrend.;Je moet niet <b>overdrijven</b>,het is niet zo erg.;exaggerate;to exaggerate;Sommige mensen vinden het leuk om te <b>overdrijven</b>,ik vind het verwarrend.;FALSE;1382.6;0.3;;;;;;;;;;;;;;;;;;;;;;;;;;;;;;;;;;;;;;;;;;;;;;;;;;;;;;;;;;;;;;;;;;;;;;;;;;;;;;;;;;;;;;;;;;;;;;;;;;;;;;;;;;;;;;;;;;;;;;;;;;;;;;;;;;;;;;;;;;;;;;;;;;;;;;;;;;;;;;;;;;;;;;;;;;;;;;;;;;;;;;;;;;;;;;;;;;;;;
63;1467761.0;1899.0;TRUE;20;begroeten;Wij <b>begroeten</b> elkaar altijd als we thuis komen.;Wat is de beste manier om een kennis te <b>begroeten</b>?;greet;to greet;Wij <b>begroeten</b> elkaar altijd als we thuis komen.;FALSE;895.1;0.250390625;;;;;;;;;;;;;;;;;;;;;;;;;;;;;;;;;;;;;;;;;;;;;;;;;;;;;;;;;;;;;;;;;;;;;;;;;;;;;;;;;;;;;;;;;;;;;;;;;;;;;;;;;;;;;;;;;;;;;;;;;;;;;;;;;;;;;;;;;;;;;;;;;;;;;;;;;;;;;;;;;;;;;;;;;;;;;;;;;;;;;;;;;;;;;;;;;;;;;
64;1473468.0;1283.0;TRUE;21;overdrijven;Sommige mensen vinden het leuk om te <b>overdrijven</b>,ik vind het verwarrend.;Je moet niet <b>overdrijven</b>,het is niet zo erg.;exaggerate;to exaggerate;Sommige mensen vinden het leuk om te <b>overdrijven</b>,ik vind het verwarrend.;FALSE;1382.6;0.250390625;;;;;;;;;;;;;;;;;;;;;;;;;;;;;;;;;;;;;;;;;;;;;;;;;;;;;;;;;;;;;;;;;;;;;;;;;;;;;;;;;;;;;;;;;;;;;;;;;;;;;;;;;;;;;;;;;;;;;;;;;;;;;;;;;;;;;;;;;;;;;;;;;;;;;;;;;;;;;;;;;;;;;;;;;;;;;;;;;;;;;;;;;;;;;;;;;;;;;
65;1478190.0;inf;TRUE;16;ongemakkelijk;Het was een beetje <b>ongemakkelijk</b> op de dansvloer.;Ik voel me <b>ongemakkelijk</b> bij dit gesprek.;awkward;ongemakkelijk;FALSE;934.1;0.31562499999999993;;;;;;;;;;;;;;;;;;;;;;;;;;;;;;;;;;;;;;;;;;;;;;;;;;;;;;;;;;;;;;;;;;;;;;;;;;;;;;;;;;;;;;;;;;;;;;;;;;;;;;;;;;;;;;;;;;;;;;;;;;;;;;;;;;;;;;;;;;;;;;;;;;;;;;;;;;;;;;;;;;;;;;;;;;;;;;;;;;;;;;;;;;;;;;;;;;;;;;
66;1489310.0;1373.0;TRUE;18;vreugde;Het optreden bracht haar intense <b>vreugde</b>.;De <b>vreugde</b> van kinderen is aanstekelijk.;joy;Het optreden bracht haar intense <b>vreugde</b>.;FALSE;778.1;0.29960937500000007;;;;;;;;;;;;;;;;;;;;;;;;;;;;;;;;;;;;;;;;;;;;;;;;;;;;;;;;;;;;;;;;;;;;;;;;;;;;;;;;;;;;;;;;;;;;;;;;;;;;;;;;;;;;;;;;;;;;;;;;;;;;;;;;;;;;;;;;;;;;;;;;;;;;;;;;;;;;;;;;;;;;;;;;;;;;;;;;;;;;;;;;;;;;;;;;;;;;;;
67;1492848.0;2373.0;TRUE;22;vergeven;Ik heb het haar <b>vergeven</b>,maar ik vergeet het niet.;Kun je het me <b>vergeven</b>?;forgive;to forgive;Ik heb het haar <b>vergeven</b>,maar ik vergeet het niet.;FALSE;953.6;0.3;;;;;;;;;;;;;;;;;;;;;;;;;;;;;;;;;;;;;;;;;;;;;;;;;;;;;;;;;;;;;;;;;;;;;;;;;;;;;;;;;;;;;;;;;;;;;;;;;;;;;;;;;;;;;;;;;;;;;;;;;;;;;;;;;;;;;;;;;;;;;;;;;;;;;;;;;;;;;;;;;;;;;;;;;;;;;;;;;;;;;;;;;;;;;;;;;;;;;
68;1497917.0;1840.0;TRUE;10;onverschillig;Ik ben <b>onverschillig</b> tegenover de mening van anderen.;Ze leek heel <b>onverschillig</b>,maar dat viel uiteindelijk mee.;indifferent;onverschillig;FALSE;1012.1;0.22539062500000004;;;;;;;;;;;;;;;;;;;;;;;;;;;;;;;;;;;;;;;;;;;;;;;;;;;;;;;;;;;;;;;;;;;;;;;;;;;;;;;;;;;;;;;;;;;;;;;;;;;;;;;;;;;;;;;;;;;;;;;;;;;;;;;;;;;;;;;;;;;;;;;;;;;;;;;;;;;;;;;;;;;;;;;;;;;;;;;;;;;;;;;;;;;;;;;;;;;;;;
69;1503294.0;1146.0;TRUE;22;vergeven;Ik heb het haar <b>vergeven</b>,maar ik vergeet het niet.;Kun je het me <b>vergeven</b>?;forgive;to forgive;Ik heb het haar <b>vergeven</b>,maar ik vergeet het niet.;FALSE;953.6;0.250390625;;;;;;;;;;;;;;;;;;;;;;;;;;;;;;;;;;;;;;;;;;;;;;;;;;;;;;;;;;;;;;;;;;;;;;;;;;;;;;;;;;;;;;;;;;;;;;;;;;;;;;;;;;;;;;;;;;;;;;;;;;;;;;;;;;;;;;;;;;;;;;;;;;;;;;;;;;;;;;;;;;;;;;;;;;;;;;;;;;;;;;;;;;;;;;;;;;;;;
70;1507744.0;3432.0;TRUE;13;tevreden;Mijn baas was erg <b>tevreden</b> over het resultaat.;Hij is niet snel <b>tevreden</b>,hij is erg kritisch.;satisfied;Mijn baas was erg <b>tevreden</b> over het resultaat.;FALSE;875.6;0.3003906249999999;;;;;;;;;;;;;;;;;;;;;;;;;;;;;;;;;;;;;;;;;;;;;;;;;;;;;;;;;;;;;;;;;;;;;;;;;;;;;;;;;;;;;;;;;;;;;;;;;;;;;;;;;;;;;;;;;;;;;;;;;;;;;;;;;;;;;;;;;;;;;;;;;;;;;;;;;;;;;;;;;;;;;;;;;;;;;;;;;;;;;;;;;;;;;;;;;;;;;;
71;1514506.0;1058.0;TRUE;17;beschrijven;Het is lastig om de smaak van een gerecht te <b>beschrijven</b>.;Kun je proberen je gevoelens te <b>beschrijven</b>?;describe;to describe;beschrijven;FALSE;1090.1;0.20078125;;;;;;;;;;;;;;;;;;;;;;;;;;;;;;;;;;;;;;;;;;;;;;;;;;;;;;;;;;;;;;;;;;;;;;;;;;;;;;;;;;;;;;;;;;;;;;;;;;;;;;;;;;;;;;;;;;;;;;;;;;;;;;;;;;;;;;;;;;;;;;;;;;;;;;;;;;;;;;;;;;;;;;;;;;;;;;;;;;;;;;;;;;;;;;;;;;;;;
72;1518611.0;1769.0;TRUE;15;nieuwsgierig;Ik was vroeger een heel <b>nieuwsgierig</b> kind.;Ik ben <b>nieuwsgierig</b> naar de resultaten van het onderzoek.;curious;Ik was vroeger een heel <b>nieuwsgierig</b> kind.;FALSE;797.6;0.250390625;;;;;;;;;;;;;;;;;;;;;;;;;;;;;;;;;;;;;;;;;;;;;;;;;;;;;;;;;;;;;;;;;;;;;;;;;;;;;;;;;;;;;;;;;;;;;;;;;;;;;;;;;;;;;;;;;;;;;;;;;;;;;;;;;;;;;;;;;;;;;;;;;;;;;;;;;;;;;;;;;;;;;;;;;;;;;;;;;;;;;;;;;;;;;;;;;;;;;;
73;1523183.0;827.0;TRUE;19;spontaan;Ik vind het leuk om <b>spontaan</b> af te spreken.;Jij bent heel <b>spontaan</b>,dat is leuk.;spontaneous;spontaan;FALSE;817.1;0.20078125;;;;;;;;;;;;;;;;;;;;;;;;;;;;;;;;;;;;;;;;;;;;;;;;;;;;;;;;;;;;;;;;;;;;;;;;;;;;;;;;;;;;;;;;;;;;;;;;;;;;;;;;;;;;;;;;;;;;;;;;;;;;;;;;;;;;;;;;;;;;;;;;;;;;;;;;;;;;;;;;;;;;;;;;;;;;;;;;;;;;;;;;;;;;;;;;;;;;;;
74;1527337.0;1199.0;TRUE;14;moed;Er is veel <b>moed</b> voor nodig om het uit te maken.;Ik heb de <b>moed</b> niet om het te zeggen.;courage;Ik heb de <b>moed</b> niet om het te zeggen.;TRUE;895.1;0.29960937500000007;;;;;;;;;;;;;;;;;;;;;;;;;;;;;;;;;;;;;;;;;;;;;;;;;;;;;;;;;;;;;;;;;;;;;;;;;;;;;;;;;;;;;;;;;;;;;;;;;;;;;;;;;;;;;;;;;;;;;;;;;;;;;;;;;;;;;;;;;;;;;;;;;;;;;;;;;;;;;;;;;;;;;;;;;;;;;;;;;;;;;;;;;;;;;;;;;;;;;;
75;1532227.0;4330.0;TRUE;16;ongemakkelijk;Het was een beetje <b>ongemakkelijk</b> op de dansvloer.;Ik voel me <b>ongemakkelijk</b> bij dit gesprek.;awkward;Het was een beetje <b>ongemakkelijk</b> op de dansvloer.;FALSE;934.1;0.328515625;;;;;;;;;;;;;;;;;;;;;;;;;;;;;;;;;;;;;;;;;;;;;;;;;;;;;;;;;;;;;;;;;;;;;;;;;;;;;;;;;;;;;;;;;;;;;;;;;;;;;;;;;;;;;;;;;;;;;;;;;;;;;;;;;;;;;;;;;;;;;;;;;;;;;;;;;;;;;;;;;;;;;;;;;;;;;;;;;;;;;;;;;;;;;;;;;;;;;;
76;1539934.0;14317.0;TRUE;7;verwarring;De fout op de poster zorgde voor veel <b>verwarring</b>.;Tegenstrijdige berichten leiden tot <b>verwarring</b>.;confusion;De fout op de poster zorgde voor veel <b>verwarring</b>.;FALSE;934.1;0.3062499999999999;;;;;;;;;;;;;;;;;;;;;;;;;;;;;;;;;;;;;;;;;;;;;;;;;;;;;;;;;;;;;;;;;;;;;;;;;;;;;;;;;;;;;;;;;;;;;;;;;;;;;;;;;;;;;;;;;;;;;;;;;;;;;;;;;;;;;;;;;;;;;;;;;;;;;;;;;;;;;;;;;;;;;;;;;;;;;;;;;;;;;;;;;;;;;;;;;;;;;;
77;1558137.0;1424.0;TRUE;21;overdrijven;Sommige mensen vinden het leuk om te <b>overdrijven</b>,ik vind het verwarrend.;Je moet niet <b>overdrijven</b>,het is niet zo erg.;exaggerate;to exaggerate;overdrijven;FALSE;1382.6;0.20078125;;;;;;;;;;;;;;;;;;;;;;;;;;;;;;;;;;;;;;;;;;;;;;;;;;;;;;;;;;;;;;;;;;;;;;;;;;;;;;;;;;;;;;;;;;;;;;;;;;;;;;;;;;;;;;;;;;;;;;;;;;;;;;;;;;;;;;;;;;;;;;;;;;;;;;;;;;;;;;;;;;;;;;;;;;;;;;;;;;;;;;;;;;;;;;;;;;;;;
78;1562562.0;1190.0;TRUE;20;begroeten;Wij <b>begroeten</b> elkaar altijd als we thuis komen.;Wat is de beste manier om een kennis te <b>begroeten</b>?;greet;to greet;begroeten;FALSE;895.1;0.20078125;;;;;;;;;;;;;;;;;;;;;;;;;;;;;;;;;;;;;;;;;;;;;;;;;;;;;;;;;;;;;;;;;;;;;;;;;;;;;;;;;;;;;;;;;;;;;;;;;;;;;;;;;;;;;;;;;;;;;;;;;;;;;;;;;;;;;;;;;;;;;;;;;;;;;;;;;;;;;;;;;;;;;;;;;;;;;;;;;;;;;;;;;;;;;;;;;;;;;
79;1566227.0;1333.0;TRUE;22;vergeven;Ik heb het haar <b>vergeven</b>,maar ik vergeet het niet.;Kun je het me <b>vergeven</b>?;forgive;to forgive;vergeven;FALSE;953.6;0.20078125;;;;;;;;;;;;;;;;;;;;;;;;;;;;;;;;;;;;;;;;;;;;;;;;;;;;;;;;;;;;;;;;;;;;;;;;;;;;;;;;;;;;;;;;;;;;;;;;;;;;;;;;;;;;;;;;;;;;;;;;;;;;;;;;;;;;;;;;;;;;;;;;;;;;;;;;;;;;;;;;;;;;;;;;;;;;;;;;;;;;;;;;;;;;;;;;;;;;;
80;1571514.0;2107.0;TRUE;16;ongemakkelijk;Het was een beetje <b>ongemakkelijk</b> op de dansvloer.;Ik voel me <b>ongemakkelijk</b> bij dit gesprek.;awkward;Het was een beetje <b>ongemakkelijk</b> op de dansvloer.;FALSE;934.1;0.3265625;;;;;;;;;;;;;;;;;;;;;;;;;;;;;;;;;;;;;;;;;;;;;;;;;;;;;;;;;;;;;;;;;;;;;;;;;;;;;;;;;;;;;;;;;;;;;;;;;;;;;;;;;;;;;;;;;;;;;;;;;;;;;;;;;;;;;;;;;;;;;;;;;;;;;;;;;;;;;;;;;;;;;;;;;;;;;;;;;;;;;;;;;;;;;;;;;;;;;;
81;1576860.0;1612.0;TRUE;13;tevreden;Mijn baas was erg <b>tevreden</b> over het resultaat.;Hij is niet snel <b>tevreden</b>,hij is erg kritisch.;satisfied;Mijn baas was erg <b>tevreden</b> over het resultaat.;FALSE;875.6;0.25625;;;;;;;;;;;;;;;;;;;;;;;;;;;;;;;;;;;;;;;;;;;;;;;;;;;;;;;;;;;;;;;;;;;;;;;;;;;;;;;;;;;;;;;;;;;;;;;;;;;;;;;;;;;;;;;;;;;;;;;;;;;;;;;;;;;;;;;;;;;;;;;;;;;;;;;;;;;;;;;;;;;;;;;;;;;;;;;;;;;;;;;;;;;;;;;;;;;;;;
82;1581902.0;1294.0;TRUE;18;vreugde;Het optreden bracht haar intense <b>vreugde</b>.;De <b>vreugde</b> van kinderen is aanstekelijk.;joy;Het optreden bracht haar intense <b>vreugde</b>.;FALSE;778.1;0.2500000000000001;;;;;;;;;;;;;;;;;;;;;;;;;;;;;;;;;;;;;;;;;;;;;;;;;;;;;;;;;;;;;;;;;;;;;;;;;;;;;;;;;;;;;;;;;;;;;;;;;;;;;;;;;;;;;;;;;;;;;;;;;;;;;;;;;;;;;;;;;;;;;;;;;;;;;;;;;;;;;;;;;;;;;;;;;;;;;;;;;;;;;;;;;;;;;;;;;;;;;;
83;1586762.0;1165.0;TRUE;2;zelfstandig;Het is prettig als werknemers <b>zelfstandig</b> kunnen werken.;Ik vond het in het begin moeilijk om <b>zelfstandig</b> te wonen.;independent;independently;zelfstandig;FALSE;1070.6;0.15117187499999998;;;;;;;;;;;;;;;;;;;;;;;;;;;;;;;;;;;;;;;;;;;;;;;;;;;;;;;;;;;;;;;;;;;;;;;;;;;;;;;;;;;;;;;;;;;;;;;;;;;;;;;;;;;;;;;;;;;;;;;;;;;;;;;;;;;;;;;;;;;;;;;;;;;;;;;;;;;;;;;;;;;;;;;;;;;;;;;;;;;;;;;;;;;;;;;;;;;;;
84;1590884.0;1186.0;TRUE;3;gewoonte;Ik heb de slechte <b>gewoonte</b> om te laat te komen.;Het is een goede <b>gewoonte</b> om je handen te wassen voor het eten.;habit;gewoonte;FALSE;895.1;0.15117187499999998;;;;;;;;;;;;;;;;;;;;;;;;;;;;;;;;;;;;;;;;;;;;;;;;;;;;;;;;;;;;;;;;;;;;;;;;;;;;;;;;;;;;;;;;;;;;;;;;;;;;;;;;;;;;;;;;;;;;;;;;;;;;;;;;;;;;;;;;;;;;;;;;;;;;;;;;;;;;;;;;;;;;;;;;;;;;;;;;;;;;;;;;;;;;;;;;;;;;;;
85;1594227.0;1427.0;TRUE;5;bijeenkomst;SNIC is een <b>bijeenkomst</b> met studenten van verschillende opleidingen.;De <b>bijeenkomst</b> begint om 10 uur.;meeting;gathering;bijeenkomst;FALSE;1304.6;0.15117187499999998;;;;;;;;;;;;;;;;;;;;;;;;;;;;;;;;;;;;;;;;;;;;;;;;;;;;;;;;;;;;;;;;;;;;;;;;;;;;;;;;;;;;;;;;;;;;;;;;;;;;;;;;;;;;;;;;;;;;;;;;;;;;;;;;;;;;;;;;;;;;;;;;;;;;;;;;;;;;;;;;;;;;;;;;;;;;;;;;;;;;;;;;;;;;;;;;;;;;;
86;1598524.0;2965.0;TRUE;7;verwarring;De fout op de poster zorgde voor veel <b>verwarring</b>.;Tegenstrijdige berichten leiden tot <b>verwarring</b>.;confusion;De fout op de poster zorgde voor veel <b>verwarring</b>.;FALSE;934.1;0.31132812499999984;;;;;;;;;;;;;;;;;;;;;;;;;;;;;;;;;;;;;;;;;;;;;;;;;;;;;;;;;;;;;;;;;;;;;;;;;;;;;;;;;;;;;;;;;;;;;;;;;;;;;;;;;;;;;;;;;;;;;;;;;;;;;;;;;;;;;;;;;;;;;;;;;;;;;;;;;;;;;;;;;;;;;;;;;;;;;;;;;;;;;;;;;;;;;;;;;;;;;;
87;1606554.0;3385.0;TRUE;1;verschrikkelijk;Ik vind het <b>verschrikkelijk</b> om voor een groep te spreken.;Het was een <b>verschrikkelijke</b> dag.;terrible;awful;horrible;dreadful;verschrikkelijk;FALSE;1090.1;0.32460937499999987;;;;;;;;;;;;;;;;;;;;;;;;;;;;;;;;;;;;;;;;;;;;;;;;;;;;;;;;;;;;;;;;;;;;;;;;;;;;;;;;;;;;;;;;;;;;;;;;;;;;;;;;;;;;;;;;;;;;;;;;;;;;;;;;;;;;;;;;;;;;;;;;;;;;;;;;;;;;;;;;;;;;;;;;;;;;;;;;;;;;;;;;;;;;;;;;;;;
88;1613066.0;1168.0;TRUE;11;blinken;Nieuwe munten <b>blinken</b> nog.;De sterren <b>blinken</b> in de nacht.;shine;to shine;blinken;FALSE;485.6;0.20078125;;;;;;;;;;;;;;;;;;;;;;;;;;;;;;;;;;;;;;;;;;;;;;;;;;;;;;;;;;;;;;;;;;;;;;;;;;;;;;;;;;;;;;;;;;;;;;;;;;;;;;;;;;;;;;;;;;;;;;;;;;;;;;;;;;;;;;;;;;;;;;;;;;;;;;;;;;;;;;;;;;;;;;;;;;;;;;;;;;;;;;;;;;;;;;;;;;;;;
89;1616442.0;900.0;TRUE;6;vriendschap;Deze <b>vriendschap</b> is erg belangrijk voor mij.;Een <b>vriendschap</b> moet onderhouden worden.;friendship;vriendschap;FALSE;836.6;0.15117187499999998;;;;;;;;;;;;;;;;;;;;;;;;;;;;;;;;;;;;;;;;;;;;;;;;;;;;;;;;;;;;;;;;;;;;;;;;;;;;;;;;;;;;;;;;;;;;;;;;;;;;;;;;;;;;;;;;;;;;;;;;;;;;;;;;;;;;;;;;;;;;;;;;;;;;;;;;;;;;;;;;;;;;;;;;;;;;;;;;;;;;;;;;;;;;;;;;;;;;;;
90;1621010.0;1217.0;TRUE;4;verwondering;Kinderen zitten vol <b>verwondering</b>.;Ik sta vol <b>verwondering</b> naar de sterren te kijken.;wonder;surprise;verwondering;FALSE;622.1;0.15117187499999998;;;;;;;;;;;;;;;;;;;;;;;;;;;;;;;;;;;;;;;;;;;;;;;;;;;;;;;;;;;;;;;;;;;;;;;;;;;;;;;;;;;;;;;;;;;;;;;;;;;;;;;;;;;;;;;;;;;;;;;;;;;;;;;;;;;;;;;;;;;;;;;;;;;;;;;;;;;;;;;;;;;;;;;;;;;;;;;;;;;;;;;;;;;;;;;;;;;;;
91;1624530.0;1052.0;TRUE;9;kraag;De <b>kraag</b> van mijn overhemd is te strak.;Zij greep hem bij de <b>kraag</b> toen hij iets verkeerd deed.;collar;kraag;FALSE;739.1;0.15117187499999998;;;;;;;;;;;;;;;;;;;;;;;;;;;;;;;;;;;;;;;;;;;;;;;;;;;;;;;;;;;;;;;;;;;;;;;;;;;;;;;;;;;;;;;;;;;;;;;;;;;;;;;;;;;;;;;;;;;;;;;;;;;;;;;;;;;;;;;;;;;;;;;;;;;;;;;;;;;;;;;;;;;;;;;;;;;;;;;;;;;;;;;;;;;;;;;;;;;;;;
92;1627911.0;3347.0;FALSE;1;verschrikkelijk;Ik vind het <b>verschrikkelijk</b> om voor een groep te spreken.;Het was een <b>verschrikkelijke</b> dag.;terrible;awful;horrible;dreadful;Ik vind het <b>verschrikkelijk</b> om voor een groep te spreken.;FALSE;1090.1;0.3742187499999998;;;;;;;;;;;;;;;;;;;;;;;;;;;;;;;;;;;;;;;;;;;;;;;;;;;;;;;;;;;;;;;;;;;;;;;;;;;;;;;;;;;;;;;;;;;;;;;;;;;;;;;;;;;;;;;;;;;;;;;;;;;;;;;;;;;;;;;;;;;;;;;;;;;;;;;;;;;;;;;;;;;;;;;;;;;;;;;;;;;;;;;;;;;;;;;;;;;
93;1634953.0;3405.0;TRUE;16;ongemakkelijk;Het was een beetje <b>ongemakkelijk</b> op de dansvloer.;Ik voel me <b>ongemakkelijk</b> bij dit gesprek.;awkward;Het was een beetje <b>ongemakkelijk</b> op de dansvloer.;FALSE;934.1;0.327734375;;;;;;;;;;;;;;;;;;;;;;;;;;;;;;;;;;;;;;;;;;;;;;;;;;;;;;;;;;;;;;;;;;;;;;;;;;;;;;;;;;;;;;;;;;;;;;;;;;;;;;;;;;;;;;;;;;;;;;;;;;;;;;;;;;;;;;;;;;;;;;;;;;;;;;;;;;;;;;;;;;;;;;;;;;;;;;;;;;;;;;;;;;;;;;;;;;;;;;
94;1641032.0;5054.0;TRUE;1;verschrikkelijk;Ik vind het <b>verschrikkelijk</b> om voor een groep te spreken.;Het was een <b>verschrikkelijke</b> dag.;terrible;awful;horrible;dreadful;Het was een <b>verschrikkelijke</b> dag.;FALSE;1090.1;0.4238281249999998;;;;;;;;;;;;;;;;;;;;;;;;;;;;;;;;;;;;;;;;;;;;;;;;;;;;;;;;;;;;;;;;;;;;;;;;;;;;;;;;;;;;;;;;;;;;;;;;;;;;;;;;;;;;;;;;;;;;;;;;;;;;;;;;;;;;;;;;;;;;;;;;;;;;;;;;;;;;;;;;;;;;;;;;;;;;;;;;;;;;;;;;;;;;;;;;;;;
95;1649294.0;1685.0;TRUE;8;scheren;Ik moet iedere morgen opnieuw de stoppels van mijn gezicht <b>scheren</b>.;Mijn vader heeft me geleerd hoe ik moet <b>scheren</b>.;shave;to shave<b>;scheren;FALSE;1285.1;0.169140625;;;;;;;;;;;;;;;;;;;;;;;;;;;;;;;;;;;;;;;;;;;;;;;;;;;;;;;;;;;;;;;;;;;;;;;;;;;;;;;;;;;;;;;;;;;;;;;;;;;;;;;;;;;;;;;;;;;;;;;;;;;;;;;;;;;;;;;;;;;;;;;;;;;;;;;;;;;;;;;;;;;;;;;;;;;;;;;;;;;;;;;;;;;;;;;;;;;;;
96;1653444.0;3668.0;TRUE;1;verschrikkelijk;Ik vind het <b>verschrikkelijk</b> om voor een groep te spreken.;Het was een <b>verschrikkelijke</b> dag.;terrible;awful;horrible;dreadful;Het was een <b>verschrikkelijke</b> dag.;TRUE;1090.1;0.47343749999999973;;;;;;;;;;;;;;;;;;;;;;;;;;;;;;;;;;;;;;;;;;;;;;;;;;;;;;;;;;;;;;;;;;;;;;;;;;;;;;;;;;;;;;;;;;;;;;;;;;;;;;;;;;;;;;;;;;;;;;;;;;;;;;;;;;;;;;;;;;;;;;;;;;;;;;;;;;;;;;;;;;;;;;;;;;;;;;;;;;;;;;;;;;;;;;;;;;;
97;1659772.0;1186.0;TRUE;12;eenzaamheid;Tijdens de pandemie hadden veel studenten last van <b>eenzaamheid</b>.;<b>Eenzaamheid</b> is een groot probleem onder ouderen.;loneliness;solitude;eenzaamheid;FALSE;1207.1;0.15117187499999998;;;;;;;;;;;;;;;;;;;;;;;;;;;;;;;;;;;;;;;;;;;;;;;;;;;;;;;;;;;;;;;;;;;;;;;;;;;;;;;;;;;;;;;;;;;;;;;;;;;;;;;;;;;;;;;;;;;;;;;;;;;;;;;;;;;;;;;;;;;;;;;;;;;;;;;;;;;;;;;;;;;;;;;;;;;;;;;;;;;;;;;;;;;;;;;;;;;;;
98;1664014.0;1373.0;TRUE;1;verschrikkelijk;Ik vind het <b>verschrikkelijk</b> om voor een groep te spreken.;Het was een <b>verschrikkelijke</b> dag.;terrible;awful;horrible;dreadful;Het was een <b>verschrikkelijke</b> dag.;TRUE;1090.1;0.4238281249999998;;;;;;;;;;;;;;;;;;;;;;;;;;;;;;;;;;;;;;;;;;;;;;;;;;;;;;;;;;;;;;;;;;;;;;;;;;;;;;;;;;;;;;;;;;;;;;;;;;;;;;;;;;;;;;;;;;;;;;;;;;;;;;;;;;;;;;;;;;;;;;;;;;;;;;;;;;;;;;;;;;;;;;;;;;;;;;;;;;;;;;;;;;;;;;;;;;;
99;1669251.0;3433.0;TRUE;7;verwarring;De fout op de poster zorgde voor veel <b>verwarring</b>.;Tegenstrijdige berichten leiden tot <b>verwarring</b>.;confusion;De fout op de poster zorgde voor veel <b>verwarring</b>.;FALSE;934.1;0.3359374999999999;;;;;;;;;;;;;;;;;;;;;;;;;;;;;;;;;;;;;;;;;;;;;;;;;;;;;;;;;;;;;;;;;;;;;;;;;;;;;;;;;;;;;;;;;;;;;;;;;;;;;;;;;;;;;;;;;;;;;;;;;;;;;;;;;;;;;;;;;;;;;;;;;;;;;;;;;;;;;;;;;;;;;;;;;;;;;;;;;;;;;;;;;;;;;;;;;;;;;;
100;1676225.0;1653.0;TRUE;15;nieuwsgierig;Ik was vroeger een heel <b>nieuwsgierig</b> kind.;Ik ben <b>nieuwsgierig</b> naar de resultaten van het onderzoek.;curious;nieuwsgierig;FALSE;797.6;0.22656249999999997;;;;;;;;;;;;;;;;;;;;;;;;;;;;;;;;;;;;;;;;;;;;;;;;;;;;;;;;;;;;;;;;;;;;;;;;;;;;;;;;;;;;;;;;;;;;;;;;;;;;;;;;;;;;;;;;;;;;;;;;;;;;;;;;;;;;;;;;;;;;;;;;;;;;;;;;;;;;;;;;;;;;;;;;;;;;;;;;;;;;;;;;;;;;;;;;;;;;;;
101;1680419.0;1364.0;FALSE;14;moed;Er is veel <b>moed</b> voor nodig om het uit te maken.;Ik heb de <b>moed</b> niet om het te zeggen.;courage;Ik heb de <b>moed</b> niet om het te zeggen.;TRUE;895.1;0.30000000000000004;;;;;;;;;;;;;;;;;;;;;;;;;;;;;;;;;;;;;;;;;;;;;;;;;;;;;;;;;;;;;;;;;;;;;;;;;;;;;;;;;;;;;;;;;;;;;;;;;;;;;;;;;;;;;;;;;;;;;;;;;;;;;;;;;;;;;;;;;;;;;;;;;;;;;;;;;;;;;;;;;;;;;;;;;;;;;;;;;;;;;;;;;;;;;;;;;;;;;;
102;1684223.0;3881.0;TRUE;16;ongemakkelijk;Het was een beetje <b>ongemakkelijk</b> op de dansvloer.;Ik voel me <b>ongemakkelijk</b> bij dit gesprek.;awkward;Het was een beetje <b>ongemakkelijk</b> op de dansvloer.;FALSE;934.1;0.37734375;;;;;;;;;;;;;;;;;;;;;;;;;;;;;;;;;;;;;;;;;;;;;;;;;;;;;;;;;;;;;;;;;;;;;;;;;;;;;;;;;;;;;;;;;;;;;;;;;;;;;;;;;;;;;;;;;;;;;;;;;;;;;;;;;;;;;;;;;;;;;;;;;;;;;;;;;;;;;;;;;;;;;;;;;;;;;;;;;;;;;;;;;;;;;;;;;;;;;;
103;1693050.0;1341.0;TRUE;1;verschrikkelijk;Ik vind het <b>verschrikkelijk</b> om voor een groep te spreken.;Het was een <b>verschrikkelijke</b> dag.;terrible;awful;horrible;dreadful;Het was een <b>verschrikkelijke</b> dag.;TRUE;1090.1;0.4234374999999998;;;;;;;;;;;;;;;;;;;;;;;;;;;;;;;;;;;;;;;;;;;;;;;;;;;;;;;;;;;;;;;;;;;;;;;;;;;;;;;;;;;;;;;;;;;;;;;;;;;;;;;;;;;;;;;;;;;;;;;;;;;;;;;;;;;;;;;;;;;;;;;;;;;;;;;;;;;;;;;;;;;;;;;;;;;;;;;;;;;;;;;;;;;;;;;;;;;
104;1698433.0;2064.0;TRUE;16;ongemakkelijk;Het was een beetje <b>ongemakkelijk</b> op de dansvloer.;Ik voel me <b>ongemakkelijk</b> bij dit gesprek.;awkward;Ik voel me <b>ongemakkelijk</b> bij dit gesprek.;FALSE;934.1;0.376953125;;;;;;;;;;;;;;;;;;;;;;;;;;;;;;;;;;;;;;;;;;;;;;;;;;;;;;;;;;;;;;;;;;;;;;;;;;;;;;;;;;;;;;;;;;;;;;;;;;;;;;;;;;;;;;;;;;;;;;;;;;;;;;;;;;;;;;;;;;;;;;;;;;;;;;;;;;;;;;;;;;;;;;;;;;;;;;;;;;;;;;;;;;;;;;;;;;;;;;
105;1704573.0;1481.0;TRUE;19;spontaan;Ik vind het leuk om <b>spontaan</b> af te spreken.;Jij bent heel <b>spontaan</b>,dat is leuk.;spontaneous;spontaan;FALSE;817.1;0.15117187499999998;;;;;;;;;;;;;;;;;;;;;;;;;;;;;;;;;;;;;;;;;;;;;;;;;;;;;;;;;;;;;;;;;;;;;;;;;;;;;;;;;;;;;;;;;;;;;;;;;;;;;;;;;;;;;;;;;;;;;;;;;;;;;;;;;;;;;;;;;;;;;;;;;;;;;;;;;;;;;;;;;;;;;;;;;;;;;;;;;;;;;;;;;;;;;;;;;;;;;;
106;1709622.0;inf;TRUE;7;verwarring;De fout op de poster zorgde voor veel <b>verwarring</b>.;Tegenstrijdige berichten leiden tot <b>verwarring</b>.;confusion;De fout op de poster zorgde voor veel <b>verwarring</b>.;FALSE;934.1;0.38554687499999984;;;;;;;;;;;;;;;;;;;;;;;;;;;;;;;;;;;;;;;;;;;;;;;;;;;;;;;;;;;;;;;;;;;;;;;;;;;;;;;;;;;;;;;;;;;;;;;;;;;;;;;;;;;;;;;;;;;;;;;;;;;;;;;;;;;;;;;;;;;;;;;;;;;;;;;;;;;;;;;;;;;;;;;;;;;;;;;;;;;;;;;;;;;;;;;;;;;;;;
107;1718395.0;6394.0;TRUE;10;onverschillig;Ik ben <b>onverschillig</b> tegenover de mening van anderen.;Ze leek heel <b>onverschillig</b>,maar dat viel uiteindelijk mee.;indifferent;onverschillig;FALSE;1012.1;275;;;;;;;;;;;;;;;;;;;;;;;;;;;;;;;;;;;;;;;;;;;;;;;;;;;;;;;;;;;;;;;;;;;;;;;;;;;;;;;;;;;;;;;;;;;;;;;;;;;;;;;;;;;;;;;;;;;;;;;;;;;;;;;;;;;;;;;;;;;;;;;;;;;;;;;;;;;;;;;;;;;;;;;;;;;;;;;;;;;;;;;;;;;;;;;;;;;;;;
108;1729255.0;inf;TRUE;7;verwarring;De fout op de poster zorgde voor veel <b>verwarring</b>.;Tegenstrijdige berichten leiden tot <b>verwarring</b>.;confusion;Tegenstrijdige berichten leiden tot <b>verwarring</b>.;FALSE;934.1;0.41484374999999984;;;;;;;;;;;;;;;;;;;;;;;;;;;;;;;;;;;;;;;;;;;;;;;;;;;;;;;;;;;;;;;;;;;;;;;;;;;;;;;;;;;;;;;;;;;;;;;;;;;;;;;;;;;;;;;;;;;;;;;;;;;;;;;;;;;;;;;;;;;;;;;;;;;;;;;;;;;;;;;;;;;;;;;;;;;;;;;;;;;;;;;;;;;;;;;;;;;;;;
109;1738627.0;1574.0;TRUE;1;verschrikkelijk;Ik vind het <b>verschrikkelijk</b> om voor een groep te spreken.;Het was een <b>verschrikkelijke</b> dag.;terrible;awful;horrible;dreadful;Het was een <b>verschrikkelijke</b> dag.;TRUE;1090.1;0.37382812499999984;;;;;;;;;;;;;;;;;;;;;;;;;;;;;;;;;;;;;;;;;;;;;;;;;;;;;;;;;;;;;;;;;;;;;;;;;;;;;;;;;;;;;;;;;;;;;;;;;;;;;;;;;;;;;;;;;;;;;;;;;;;;;;;;;;;;;;;;;;;;;;;;;;;;;;;;;;;;;;;;;;;;;;;;;;;;;;;;;;;;;;;;;;;;;;;;;;;
110;1743401.0;3925.0;TRUE;7;verwarring;De fout op de poster zorgde voor veel <b>verwarring</b>.;Tegenstrijdige berichten leiden tot <b>verwarring</b>.;confusion;Tegenstrijdige berichten leiden tot <b>verwarring</b>.;TRUE;934.1;0.4152343749999998;;;;;;;;;;;;;;;;;;;;;;;;;;;;;;;;;;;;;;;;;;;;;;;;;;;;;;;;;;;;;;;;;;;;;;;;;;;;;;;;;;;;;;;;;;;;;;;;;;;;;;;;;;;;;;;;;;;;;;;;;;;;;;;;;;;;;;;;;;;;;;;;;;;;;;;;;;;;;;;;;;;;;;;;;;;;;;;;;;;;;;;;;;;;;;;;;;;;;;
111;1750420.0;2838.0;TRUE;16;ongemakkelijk;Het was een beetje <b>ongemakkelijk</b> op de dansvloer.;Ik voel me <b>ongemakkelijk</b> bij dit gesprek.;awkward;Ik voel me <b>ongemakkelijk</b> bij dit gesprek.;TRUE;934.1;0.42578125;;;;;;;;;;;;;;;;;;;;;;;;;;;;;;;;;;;;;;;;;;;;;;;;;;;;;;;;;;;;;;;;;;;;;;;;;;;;;;;;;;;;;;;;;;;;;;;;;;;;;;;;;;;;;;;;;;;;;;;;;;;;;;;;;;;;;;;;;;;;;;;;;;;;;;;;;;;;;;;;;;;;;;;;;;;;;;;;;;;;;;;;;;;;;;;;;;;;;;
112;1756613.0;1070.0;TRUE;17;beschrijven;Het is lastig om de smaak van een gerecht te <b>beschrijven</b>.;Kun je proberen je gevoelens te <b>beschrijven</b>?;describe;to describe;beschrijven;FALSE;1090.1;0.15117187499999998;;;;;;;;;;;;;;;;;;;;;;;;;;;;;;;;;;;;;;;;;;;;;;;;;;;;;;;;;;;;;;;;;;;;;;;;;;;;;;;;;;;;;;;;;;;;;;;;;;;;;;;;;;;;;;;;;;;;;;;;;;;;;;;;;;;;;;;;;;;;;;;;;;;;;;;;;;;;;;;;;;;;;;;;;;;;;;;;;;;;;;;;;;;;;;;;;;;;;
113;1762401.0;2334.0;TRUE;16;ongemakkelijk;Het was een beetje <b>ongemakkelijk</b> op de dansvloer.;Ik voel me <b>ongemakkelijk</b> bij dit gesprek.;awkward;Ik voel me <b>ongemakkelijk</b> bij dit gesprek.;TRUE;934.1;0.43476562500000004;;;;;;;;;;;;;;;;;;;;;;;;;;;;;;;;;;;;;;;;;;;;;;;;;;;;;;;;;;;;;;;;;;;;;;;;;;;;;;;;;;;;;;;;;;;;;;;;;;;;;;;;;;;;;;;;;;;;;;;;;;;;;;;;;;;;;;;;;;;;;;;;;;;;;;;;;;;;;;;;;;;;;;;;;;;;;;;;;;;;;;;;;;;;;;;;;;;;;;
114;1767533.0;4029.0;TRUE;10;onverschillig;Ik ben <b>onverschillig</b> tegenover de mening van anderen.;Ze leek heel <b>onverschillig</b>,maar dat viel uiteindelijk mee.;indifferent;onverschillig;FALSE;1012.1;0.276953125;;;;;;;;;;;;;;;;;;;;;;;;;;;;;;;;;;;;;;;;;;;;;;;;;;;;;;;;;;;;;;;;;;;;;;;;;;;;;;;;;;;;;;;;;;;;;;;;;;;;;;;;;;;;;;;;;;;;;;;;;;;;;;;;;;;;;;;;;;;;;;;;;;;;;;;;;;;;;;;;;;;;;;;;;;;;;;;;;;;;;;;;;;;;;;;;;;;;;;
115;1775388.0;1911.0;TRUE;7;verwarring;De fout op de poster zorgde voor veel <b>verwarring</b>.;Tegenstrijdige berichten leiden tot <b>verwarring</b>.;confusion;Tegenstrijdige berichten leiden tot <b>verwarring</b>.;TRUE;934.1;0.41484374999999984;;;;;;;;;;;;;;;;;;;;;;;;;;;;;;;;;;;;;;;;;;;;;;;;;;;;;;;;;;;;;;;;;;;;;;;;;;;;;;;;;;;;;;;;;;;;;;;;;;;;;;;;;;;;;;;;;;;;;;;;;;;;;;;;;;;;;;;;;;;;;;;;;;;;;;;;;;;;;;;;;;;;;;;;;;;;;;;;;;;;;;;;;;;;;;;;;;;;;;
116;1780350.0;3471.0;TRUE;16;ongemakkelijk;Het was een beetje <b>ongemakkelijk</b> op de dansvloer.;Ik voel me <b>ongemakkelijk</b> bij dit gesprek.;awkward;Ik voel me <b>ongemakkelijk</b> bij dit gesprek.;TRUE;934.1;0.45078125;;;;;;;;;;;;;;;;;;;;;;;;;;;;;;;;;;;;;;;;;;;;;;;;;;;;;;;;;;;;;;;;;;;;;;;;;;;;;;;;;;;;;;;;;;;;;;;;;;;;;;;;;;;;;;;;;;;;;;;;;;;;;;;;;;;;;;;;;;;;;;;;;;;;;;;;;;;;;;;;;;;;;;;;;;;;;;;;;;;;;;;;;;;;;;;;;;;;;;
117;1786827.0;1145.0;TRUE;21;overdrijven;Sommige mensen vinden het leuk om te <b>overdrijven</b>,ik vind het verwarrend.;Je moet niet <b>overdrijven</b>,het is niet zo erg.;exaggerate;to exaggerate;overdrijven;FALSE;1382.6;0.15117187499999998;;;;;;;;;;;;;;;;;;;;;;;;;;;;;;;;;;;;;;;;;;;;;;;;;;;;;;;;;;;;;;;;;;;;;;;;;;;;;;;;;;;;;;;;;;;;;;;;;;;;;;;;;;;;;;;;;;;;;;;;;;;;;;;;;;;;;;;;;;;;;;;;;;;;;;;;;;;;;;;;;;;;;;;;;;;;;;;;;;;;;;;;;;;;;;;;;;;;;
118;1791376.0;1473.0;TRUE;22;vergeven;Ik heb het haar <b>vergeven</b>,maar ik vergeet het niet.;Kun je het me <b>vergeven</b>?;forgive;to forgive;vergeven;FALSE;953.6;0.15117187499999998;;;;;;;;;;;;;;;;;;;;;;;;;;;;;;;;;;;;;;;;;;;;;;;;;;;;;;;;;;;;;;;;;;;;;;;;;;;;;;;;;;;;;;;;;;;;;;;;;;;;;;;;;;;;;;;;;;;;;;;;;;;;;;;;;;;;;;;;;;;;;;;;;;;;;;;;;;;;;;;;;;;;;;;;;;;;;;;;;;;;;;;;;;;;;;;;;;;;;
119;1796135.0;3302.0;TRUE;16;ongemakkelijk;Het was een beetje <b>ongemakkelijk</b> op de dansvloer.;Ik voel me <b>ongemakkelijk</b> bij dit gesprek.;awkward;Ik voel me <b>ongemakkelijk</b> bij dit gesprek.;TRUE;934.1;0.451171875;;;;;;;;;;;;;;;;;;;;;;;;;;;;;;;;;;;;;;;;;;;;;;;;;;;;;;;;;;;;;;;;;;;;;;;;;;;;;;;;;;;;;;;;;;;;;;;;;;;;;;;;;;;;;;;;;;;;;;;;;;;;;;;;;;;;;;;;;;;;;;;;;;;;;;;;;;;;;;;;;;;;;;;;;;;;;;;;;;;;;;;;;;;;;;;;;;;;;;
120;1802072.0;1407.0;TRUE;20;begroeten;Wij <b>begroeten</b> elkaar altijd als we thuis komen.;Wat is de beste manier om een kennis te <b>begroeten</b>?;greet;to greet;begroeten;FALSE;895.1;0.15117187499999998;;;;;;;;;;;;;;;;;;;;;;;;;;;;;;;;;;;;;;;;;;;;;;;;;;;;;;;;;;;;;;;;;;;;;;;;;;;;;;;;;;;;;;;;;;;;;;;;;;;;;;;;;;;;;;;;;;;;;;;;;;;;;;;;;;;;;;;;;;;;;;;;;;;;;;;;;;;;;;;;;;;;;;;;;;;;;;;;;;;;;;;;;;;;;;;;;;;;;
121;1805928.0;inf;TRUE;13;tevreden;Mijn baas was erg <b>tevreden</b> over het resultaat.;Hij is niet snel <b>tevreden</b>,hij is erg kritisch.;satisfied;tevreden;FALSE;875.6;0.30351562499999996;;;;;;;;;;;;;;;;;;;;;;;;;;;;;;;;;;;;;;;;;;;;;;;;;;;;;;;;;;;;;;;;;;;;;;;;;;;;;;;;;;;;;;;;;;;;;;;;;;;;;;;;;;;;;;;;;;;;;;;;;;;;;;;;;;;;;;;;;;;;;;;;;;;;;;;;;;;;;;;;;;;;;;;;;;;;;;;;;;;;;;;;;;;;;;;;;;;;;;
122;1811950.0;1256.0;TRUE;7;verwarring;De fout op de poster zorgde voor veel <b>verwarring</b>.;Tegenstrijdige berichten leiden tot <b>verwarring</b>.;confusion;Tegenstrijdige berichten leiden tot <b>verwarring</b>.;TRUE;934.1;0.41445312499999987;;;;;;;;;;;;;;;;;;;;;;;;;;;;;;;;;;;;;;;;;;;;;;;;;;;;;;;;;;;;;;;;;;;;;;;;;;;;;;;;;;;;;;;;;;;;;;;;;;;;;;;;;;;;;;;;;;;;;;;;;;;;;;;;;;;;;;;;;;;;;;;;;;;;;;;;;;;;;;;;;;;;;;;;;;;;;;;;;;;;;;;;;;;;;;;;;;;;;;
123;1816499.0;1642.0;TRUE;14;moed;Er is veel <b>moed</b> voor nodig om het uit te maken.;Ik heb de <b>moed</b> niet om het te zeggen.;courage;Ik heb de <b>moed</b> niet om het te zeggen.;TRUE;895.1;0.2503906250000001;;;;;;;;;;;;;;;;;;;;;;;;;;;;;;;;;;;;;;;;;;;;;;;;;;;;;;;;;;;;;;;;;;;;;;;;;;;;;;;;;;;;;;;;;;;;;;;;;;;;;;;;;;;;;;;;;;;;;;;;;;;;;;;;;;;;;;;;;;;;;;;;;;;;;;;;;;;;;;;;;;;;;;;;;;;;;;;;;;;;;;;;;;;;;;;;;;;;;;
124;1820881.0;3882.0;TRUE;16;ongemakkelijk;Het was een beetje <b>ongemakkelijk</b> op de dansvloer.;Ik voel me <b>ongemakkelijk</b> bij dit gesprek.;awkward;Ik voel me <b>ongemakkelijk</b> bij dit gesprek.;TRUE;934.1;0.5007812500000001;;;;;;;;;;;;;;;;;;;;;;;;;;;;;;;;;;;;;;;;;;;;;;;;;;;;;;;;;;;;;;;;;;;;;;;;;;;;;;;;;;;;;;;;;;;;;;;;;;;;;;;;;;;;;;;;;;;;;;;;;;;;;;;;;;;;;;;;;;;;;;;;;;;;;;;;;;;;;;;;;;;;;;;;;;;;;;;;;;;;;;;;;;;;;;;;;;;;;;
125;1827952.0;2927.0;TRUE;18;vreugde;Het optreden bracht haar intense <b>vreugde</b>.;De <b>vreugde</b> van kinderen is aanstekelijk.;joy;vreugde;FALSE;778.1;0.2503906250000001;;;;;;;;;;;;;;;;;;;;;;;;;;;;;;;;;;;;;;;;;;;;;;;;;;;;;;;;;;;;;;;;;;;;;;;;;;;;;;;;;;;;;;;;;;;;;;;;;;;;;;;;;;;;;;;;;;;;;;;;;;;;;;;;;;;;;;;;;;;;;;;;;;;;;;;;;;;;;;;;;;;;;;;;;;;;;;;;;;;;;;;;;;;;;;;;;;;;;;
126;1833256.0;2505.0;TRUE;16;ongemakkelijk;Het was een beetje <b>ongemakkelijk</b> op de dansvloer.;Ik voel me <b>ongemakkelijk</b> bij dit gesprek.;awkward;Ik voel me <b>ongemakkelijk</b> bij dit gesprek.;TRUE;934.1;0.5503906250000001;;;;;;;;;;;;;;;;;;;;;;;;;;;;;;;;;;;;;;;;;;;;;;;;;;;;;;;;;;;;;;;;;;;;;;;;;;;;;;;;;;;;;;;;;;;;;;;;;;;;;;;;;;;;;;;;;;;;;;;;;;;;;;;;;;;;;;;;;;;;;;;;;;;;;;;;;;;;;;;;;;;;;;;;;;;;;;;;;;;;;;;;;;;;;;;;;;;;;;
127;1840396.0;3342.0;TRUE;13;tevreden;Mijn baas was erg <b>tevreden</b> over het resultaat.;Hij is niet snel <b>tevreden</b>,hij is erg kritisch.;satisfied;Mijn baas was erg <b>tevreden</b> over het resultaat.;FALSE;875.6;0.328125;;;;;;;;;;;;;;;;;;;;;;;;;;;;;;;;;;;;;;;;;;;;;;;;;;;;;;;;;;;;;;;;;;;;;;;;;;;;;;;;;;;;;;;;;;;;;;;;;;;;;;;;;;;;;;;;;;;;;;;;;;;;;;;;;;;;;;;;;;;;;;;;;;;;;;;;;;;;;;;;;;;;;;;;;;;;;;;;;;;;;;;;;;;;;;;;;;;;;;
128;1846876.0;1277.0;TRUE;16;ongemakkelijk;Het was een beetje <b>ongemakkelijk</b> op de dansvloer.;Ik voel me <b>ongemakkelijk</b> bij dit gesprek.;awkward;Ik voel me <b>ongemakkelijk</b> bij dit gesprek.;TRUE;934.1;0.5500000000000002;;;;;;;;;;;;;;;;;;;;;;;;;;;;;;;;;;;;;;;;;;;;;;;;;;;;;;;;;;;;;;;;;;;;;;;;;;;;;;;;;;;;;;;;;;;;;;;;;;;;;;;;;;;;;;;;;;;;;;;;;;;;;;;;;;;;;;;;;;;;;;;;;;;;;;;;;;;;;;;;;;;;;;;;;;;;;;;;;;;;;;;;;;;;;;;;;;;;;;
129;1850676.0;1370.0;TRUE;7;verwarring;De fout op de poster zorgde voor veel <b>verwarring</b>.;Tegenstrijdige berichten leiden tot <b>verwarring</b>.;confusion;Tegenstrijdige berichten leiden tot <b>verwarring</b>.;TRUE;934.1;0.3648437499999999;;;;;;;;;;;;;;;;;;;;;;;;;;;;;;;;;;;;;;;;;;;;;;;;;;;;;;;;;;;;;;;;;;;;;;;;;;;;;;;;;;;;;;;;;;;;;;;;;;;;;;;;;;;;;;;;;;;;;;;;;;;;;;;;;;;;;;;;;;;;;;;;;;;;;;;;;;;;;;;;;;;;;;;;;;;;;;;;;;;;;;;;;;;;;;;;;;;;;;
130;1854899.0;1065.0;TRUE;16;ongemakkelijk;Het was een beetje <b>ongemakkelijk</b> op de dansvloer.;Ik voel me <b>ongemakkelijk</b> bij dit gesprek.;awkward;Ik voel me <b>ongemakkelijk</b> bij dit gesprek.;TRUE;934.1;0.5457031250000002;;;;;;;;;;;;;;;;;;;;;;;;;;;;;;;;;;;;;;;;;;;;;;;;;;;;;;;;;;;;;;;;;;;;;;;;;;;;;;;;;;;;;;;;;;;;;;;;;;;;;;;;;;;;;;;;;;;;;;;;;;;;;;;;;;;;;;;;;;;;;;;;;;;;;;;;;;;;;;;;;;;;;;;;;;;;;;;;;;;;;;;;;;;;;;;;;;;;;;
131;1859192.0;1238.0;TRUE;1;verschrikkelijk;Ik vind het <b>verschrikkelijk</b> om voor een groep te spreken.;Het was een <b>verschrikkelijke</b> dag.;terrible;awful;horrible;dreadful;Het was een <b>verschrikkelijke</b> dag.;TRUE;1090.1;0.3242187499999999;;;;;;;;;;;;;;;;;;;;;;;;;;;;;;;;;;;;;;;;;;;;;;;;;;;;;;;;;;;;;;;;;;;;;;;;;;;;;;;;;;;;;;;;;;;;;;;;;;;;;;;;;;;;;;;;;;;;;;;;;;;;;;;;;;;;;;;;;;;;;;;;;;;;;;;;;;;;;;;;;;;;;;;;;;;;;;;;;;;;;;;;;;;;;;;;;;;
132;1863040.0;1053.0;TRUE;16;ongemakkelijk;Het was een beetje <b>ongemakkelijk</b> op de dansvloer.;Ik voel me <b>ongemakkelijk</b> bij dit gesprek.;awkward;Ik voel me <b>ongemakkelijk</b> bij dit gesprek.;TRUE;934.1;0.5328125000000002;;;;;;;;;;;;;;;;;;;;;;;;;;;;;;;;;;;;;;;;;;;;;;;;;;;;;;;;;;;;;;;;;;;;;;;;;;;;;;;;;;;;;;;;;;;;;;;;;;;;;;;;;;;;;;;;;;;;;;;;;;;;;;;;;;;;;;;;;;;;;;;;;;;;;;;;;;;;;;;;;;;;;;;;;;;;;;;;;;;;;;;;;;;;;;;;;;;;;;
133;1867783.0;2906.0;TRUE;10;onverschillig;Ik ben <b>onverschillig</b> tegenover de mening van anderen.;Ze leek heel <b>onverschillig</b>,maar dat viel uiteindelijk mee.;indifferent;onverschillig;FALSE;1012.1;0.3265625;;;;;;;;;;;;;;;;;;;;;;;;;;;;;;;;;;;;;;;;;;;;;;;;;;;;;;;;;;;;;;;;;;;;;;;;;;;;;;;;;;;;;;;;;;;;;;;;;;;;;;;;;;;;;;;;;;;;;;;;;;;;;;;;;;;;;;;;;;;;;;;;;;;;;;;;;;;;;;;;;;;;;;;;;;;;;;;;;;;;;;;;;;;;;;;;;;;;;;
134;1874535.0;1506.0;TRUE;13;tevreden;Mijn baas was erg <b>tevreden</b> over het resultaat.;Hij is niet snel <b>tevreden</b>,hij is erg kritisch.;satisfied;Mijn baas was erg <b>tevreden</b> over het resultaat.;FALSE;875.6;0.327734375;;;;;;;;;;;;;;;;;;;;;;;;;;;;;;;;;;;;;;;;;;;;;;;;;;;;;;;;;;;;;;;;;;;;;;;;;;;;;;;;;;;;;;;;;;;;;;;;;;;;;;;;;;;;;;;;;;;;;;;;;;;;;;;;;;;;;;;;;;;;;;;;;;;;;;;;;;;;;;;;;;;;;;;;;;;;;;;;;;;;;;;;;;;;;;;;;;;;;;
135;1878900.0;2227.0;TRUE;16;ongemakkelijk;Het was een beetje <b>ongemakkelijk</b> op de dansvloer.;Ik voel me <b>ongemakkelijk</b> bij dit gesprek.;awkward;Ik voel me <b>ongemakkelijk</b> bij dit gesprek.;TRUE;934.1;0.5332031250000002;;;;;;;;;;;;;;;;;;;;;;;;;;;;;;;;;;;;;;;;;;;;;;;;;;;;;;;;;;;;;;;;;;;;;;;;;;;;;;;;;;;;;;;;;;;;;;;;;;;;;;;;;;;;;;;;;;;;;;;;;;;;;;;;;;;;;;;;;;;;;;;;;;;;;;;;;;;;;;;;;;;;;;;;;;;;;;;;;;;;;;;;;;;;;;;;;;;;;;
136;1884127.0;4414.0;TRUE;10;onverschillig;Ik ben <b>onverschillig</b> tegenover de mening van anderen.;Ze leek heel <b>onverschillig</b>,maar dat viel uiteindelijk mee.;indifferent;Ik ben <b>onverschillig</b> tegenover de mening van anderen.;FALSE;1012.1;0.32695312499999996;;;;;;;;;;;;;;;;;;;;;;;;;;;;;;;;;;;;;;;;;;;;;;;;;;;;;;;;;;;;;;;;;;;;;;;;;;;;;;;;;;;;;;;;;;;;;;;;;;;;;;;;;;;;;;;;;;;;;;;;;;;;;;;;;;;;;;;;;;;;;;;;;;;;;;;;;;;;;;;;;;;;;;;;;;;;;;;;;;;;;;;;;;;;;;;;;;;;;;
137;1891416.0;1138.0;TRUE;16;ongemakkelijk;Het was een beetje <b>ongemakkelijk</b> op de dansvloer.;Ik voel me <b>ongemakkelijk</b> bij dit gesprek.;awkward;Ik voel me <b>ongemakkelijk</b> bij dit gesprek.;TRUE;934.1;0.48359375000000027;;;;;;;;;;;;;;;;;;;;;;;;;;;;;;;;;;;;;;;;;;;;;;;;;;;;;;;;;;;;;;;;;;;;;;;;;;;;;;;;;;;;;;;;;;;;;;;;;;;;;;;;;;;;;;;;;;;;;;;;;;;;;;;;;;;;;;;;;;;;;;;;;;;;;;;;;;;;;;;;;;;;;;;;;;;;;;;;;;;;;;;;;;;;;;;;;;;;;;
138;1895214.0;1123.0;TRUE;15;nieuwsgierig;Ik was vroeger een heel <b>nieuwsgierig</b> kind.;Ik ben <b>nieuwsgierig</b> naar de resultaten van het onderzoek.;curious;nieuwsgierig;FALSE;797.6;0.22382812499999996;;;;;;;;;;;;;;;;;;;;;;;;;;;;;;;;;;;;;;;;;;;;;;;;;;;;;;;;;;;;;;;;;;;;;;;;;;;;;;;;;;;;;;;;;;;;;;;;;;;;;;;;;;;;;;;;;;;;;;;;;;;;;;;;;;;;;;;;;;;;;;;;;;;;;;;;;;;;;;;;;;;;;;;;;;;;;;;;;;;;;;;;;;;;;;;;;;;;;;
139;1899209.0;2334.0;TRUE;13;tevreden;Mijn baas was erg <b>tevreden</b> over het resultaat.;Hij is niet snel <b>tevreden</b>,hij is erg kritisch.;satisfied;Mijn baas was erg <b>tevreden</b> over het resultaat.;FALSE;875.6;0.35234375000000007;;;;;;;;;;;;;;;;;;;;;;;;;;;;;;;;;;;;;;;;;;;;;;;;;;;;;;;;;;;;;;;;;;;;;;;;;;;;;;;;;;;;;;;;;;;;;;;;;;;;;;;;;;;;;;;;;;;;;;;;;;;;;;;;;;;;;;;;;;;;;;;;;;;;;;;;;;;;;;;;;;;;;;;;;;;;;;;;;;;;;;;;;;;;;;;;;;;;;;
140;1904540.0;1030.0;TRUE;18;vreugde;Het optreden bracht haar intense <b>vreugde</b>.;De <b>vreugde</b> van kinderen is aanstekelijk.;joy;vreugde;FALSE;778.1;0.2007812500000001;;;;;;;;;;;;;;;;;;;;;;;;;;;;;;;;;;;;;;;;;;;;;;;;;;;;;;;;;;;;;;;;;;;;;;;;;;;;;;;;;;;;;;;;;;;;;;;;;;;;;;;;;;;;;;;;;;;;;;;;;;;;;;;;;;;;;;;;;;;;;;;;;;;;;;;;;;;;;;;;;;;;;;;;;;;;;;;;;;;;;;;;;;;;;;;;;;;;;;
141;1907975.0;3027.0;TRUE;10;onverschillig;Ik ben <b>onverschillig</b> tegenover de mening van anderen.;Ze leek heel <b>onverschillig</b>,maar dat viel uiteindelijk mee.;indifferent;Ik ben <b>onverschillig</b> tegenover de mening van anderen.;FALSE;1012.1;0.32734374999999993;;;;;;;;;;;;;;;;;;;;;;;;;;;;;;;;;;;;;;;;;;;;;;;;;;;;;;;;;;;;;;;;;;;;;;;;;;;;;;;;;;;;;;;;;;;;;;;;;;;;;;;;;;;;;;;;;;;;;;;;;;;;;;;;;;;;;;;;;;;;;;;;;;;;;;;;;;;;;;;;;;;;;;;;;;;;;;;;;;;;;;;;;;;;;;;;;;;;;;
142;1914701.0;1913.0;TRUE;13;tevreden;Mijn baas was erg <b>tevreden</b> over het resultaat.;Hij is niet snel <b>tevreden</b>,hij is erg kritisch.;satisfied;Hij is niet snel <b>tevreden</b>,hij is erg kritisch.;FALSE;875.6;0.3519531250000001;;;;;;;;;;;;;;;;;;;;;;;;;;;;;;;;;;;;;;;;;;;;;;;;;;;;;;;;;;;;;;;;;;;;;;;;;;;;;;;;;;;;;;;;;;;;;;;;;;;;;;;;;;;;;;;;;;;;;;;;;;;;;;;;;;;;;;;;;;;;;;;;;;;;;;;;;;;;;;;;;;;;;;;;;;;;;;;;;;;;;;;;;;;;;;;;;;;;;;
143;1919469.0;1158.0;TRUE;16;ongemakkelijk;Het was een beetje <b>ongemakkelijk</b> op de dansvloer.;Ik voel me <b>ongemakkelijk</b> bij dit gesprek.;awkward;Ik voel me <b>ongemakkelijk</b> bij dit gesprek.;TRUE;934.1;0.4339843750000003;;;;;;;;;;;;;;;;;;;;;;;;;;;;;;;;;;;;;;;;;;;;;;;;;;;;;;;;;;;;;;;;;;;;;;;;;;;;;;;;;;;;;;;;;;;;;;;;;;;;;;;;;;;;;;;;;;;;;;;;;;;;;;;;;;;;;;;;;;;;;;;;;;;;;;;;;;;;;;;;;;;;;;;;;;;;;;;;;;;;;;;;;;;;;;;;;;;;;;
144;1923206.0;1113.0;TRUE;7;verwarring;De fout op de poster zorgde voor veel <b>verwarring</b>.;Tegenstrijdige berichten leiden tot <b>verwarring</b>.;confusion;Tegenstrijdige berichten leiden tot <b>verwarring</b>.;TRUE;934.1;0.31523437499999996;;;;;;;;;;;;;;;;;;;;;;;;;;;;;;;;;;;;;;;;;;;;;;;;;;;;;;;;;;;;;;;;;;;;;;;;;;;;;;;;;;;;;;;;;;;;;;;;;;;;;;;;;;;;;;;;;;;;;;;;;;;;;;;;;;;;;;;;;;;;;;;;;;;;;;;;;;;;;;;;;;;;;;;;;;;;;;;;;;;;;;;;;;;;;;;;;;;;;;
145;1927528.0;1009.0;TRUE;11;blinken;Nieuwe munten <b>blinken</b> nog.;De sterren <b>blinken</b> in de nacht.;shine;to shine;blinken;FALSE;485.6;0.15117187499999998;;;;;;;;;;;;;;;;;;;;;;;;;;;;;;;;;;;;;;;;;;;;;;;;;;;;;;;;;;;;;;;;;;;;;;;;;;;;;;;;;;;;;;;;;;;;;;;;;;;;;;;;;;;;;;;;;;;;;;;;;;;;;;;;;;;;;;;;;;;;;;;;;;;;;;;;;;;;;;;;;;;;;;;;;;;;;;;;;;;;;;;;;;;;;;;;;;;;;
146;1930653.0;956.0;TRUE;8;scheren;Ik moet iedere morgen opnieuw de stoppels van mijn gezicht <b>scheren</b>.;Mijn vader heeft me geleerd hoe ik moet <b>scheren</b>.;shave;to shave<b>;scheren;FALSE;1285.1;0.11953124999999998;;;;;;;;;;;;;;;;;;;;;;;;;;;;;;;;;;;;;;;;;;;;;;;;;;;;;;;;;;;;;;;;;;;;;;;;;;;;;;;;;;;;;;;;;;;;;;;;;;;;;;;;;;;;;;;;;;;;;;;;;;;;;;;;;;;;;;;;;;;;;;;;;;;;;;;;;;;;;;;;;;;;;;;;;;;;;;;;;;;;;;;;;;;;;;;;;;;;;
147;1933872.0;6315.0;TRUE;10;onverschillig;Ik ben <b>onverschillig</b> tegenover de mening van anderen.;Ze leek heel <b>onverschillig</b>,maar dat viel uiteindelijk mee.;indifferent;Ik ben <b>onverschillig</b> tegenover de mening van anderen.;FALSE;1012.1;0.3769531249999999;;;;;;;;;;;;;;;;;;;;;;;;;;;;;;;;;;;;;;;;;;;;;;;;;;;;;;;;;;;;;;;;;;;;;;;;;;;;;;;;;;;;;;;;;;;;;;;;;;;;;;;;;;;;;;;;;;;;;;;;;;;;;;;;;;;;;;;;;;;;;;;;;;;;;;;;;;;;;;;;;;;;;;;;;;;;;;;;;;;;;;;;;;;;;;;;;;;;;;
148;1943169.0;2959.0;TRUE;13;tevreden;Mijn baas was erg <b>tevreden</b> over het resultaat.;Hij is niet snel <b>tevreden</b>,hij is erg kritisch.;satisfied;Hij is niet snel <b>tevreden</b>,hij is erg kritisch.;TRUE;875.6;0.36796875000000007;;;;;;;;;;;;;;;;;;;;;;;;;;;;;;;;;;;;;;;;;;;;;;;;;;;;;;;;;;;;;;;;;;;;;;;;;;;;;;;;;;;;;;;;;;;;;;;;;;;;;;;;;;;;;;;;;;;;;;;;;;;;;;;;;;;;;;;;;;;;;;;;;;;;;;;;;;;;;;;;;;;;;;;;;;;;;;;;;;;;;;;;;;;;;;;;;;;;;;
149;1949539.0;9334.0;TRUE;10;onverschillig;Ik ben <b>onverschillig</b> tegenover de mening van anderen.;Ze leek heel <b>onverschillig</b>,maar dat viel uiteindelijk mee.;indifferent;Ze leek heel <b>onverschillig</b>,maar dat viel uiteindelijk mee.;FALSE;1012.1;0.42499999999999993;;;;;;;;;;;;;;;;;;;;;;;;;;;;;;;;;;;;;;;;;;;;;;;;;;;;;;;;;;;;;;;;;;;;;;;;;;;;;;;;;;;;;;;;;;;;;;;;;;;;;;;;;;;;;;;;;;;;;;;;;;;;;;;;;;;;;;;;;;;;;;;;;;;;;;;;;;;;;;;;;;;;;;;;;;;;;;;;;;;;;;;;;;;;;;;;;;;;;;
150;1961775.0;2706.0;TRUE;13;tevreden;Mijn baas was erg <b>tevreden</b> over het resultaat.;Hij is niet snel <b>tevreden</b>,hij is erg kritisch.;satisfied;Hij is niet snel <b>tevreden</b>,hij is erg kritisch.;TRUE;875.6;0.36835937500000004;;;;;;;;;;;;;;;;;;;;;;;;;;;;;;;;;;;;;;;;;;;;;;;;;;;;;;;;;;;;;;;;;;;;;;;;;;;;;;;;;;;;;;;;;;;;;;;;;;;;;;;;;;;;;;;;;;;;;;;;;;;;;;;;;;;;;;;;;;;;;;;;;;;;;;;;;;;;;;;;;;;;;;;;;;;;;;;;;;;;;;;;;;;;;;;;;;;;;;