trial;start_time;rt;correct;fact_id;question;context_1;context_ 0;2;answer;chosen_context;encounter_2;reading_time;fogetting_rate;;;;;;;;;;;;;;;;;;;;;;;;;;;;;;;;;;;;;;;;;;;;;;;;;;;;;;;;;;;;;;;;;;;;;;;;;;;;;;;;;;;;;;;;;;;;;;;;;;;;;;;;;;;;;;;;;;;;;;;;;;;;;;;;;;;;;;;;;;;;;;;;;;;;;;;;;;;;;;;;;;;;;;;;;;;;;;;;;;;;;;;;;;;;;;;;;;;;;
1;116523.0;2650.0;TRUE;1;vergeten;Ben je nou alweer je sleutel <b>vergeten</b>?;Sorry,we waren <b>vergeten</b> de wiki aan te passen.;forget;to forget;forgot;vergeten;FALSE;719.6;0.29960937499999996;;;;;;;;;;;;;;;;;;;;;;;;;;;;;;;;;;;;;;;;;;;;;;;;;;;;;;;;;;;;;;;;;;;;;;;;;;;;;;;;;;;;;;;;;;;;;;;;;;;;;;;;;;;;;;;;;;;;;;;;;;;;;;;;;;;;;;;;;;;;;;;;;;;;;;;;;;;;;;;;;;;;;;;;;;;;;;;;;;;;;;;;;;;;;;;;;;;;
2;121704.0;1167.0;TRUE;1;vergeten;Ben je nou alweer je sleutel <b>vergeten</b>?;Sorry,we waren <b>vergeten</b> de wiki aan te passen.;forget;to forget;forgot;vergeten;FALSE;719.6;0.24999999999999997;;;;;;;;;;;;;;;;;;;;;;;;;;;;;;;;;;;;;;;;;;;;;;;;;;;;;;;;;;;;;;;;;;;;;;;;;;;;;;;;;;;;;;;;;;;;;;;;;;;;;;;;;;;;;;;;;;;;;;;;;;;;;;;;;;;;;;;;;;;;;;;;;;;;;;;;;;;;;;;;;;;;;;;;;;;;;;;;;;;;;;;;;;;;;;;;;;;;
3;125172.0;6240.0;FALSE;2;onderdeel;Ik mis een <b>onderdeel</b> van mijn IKEA kast.;Deze opleiding is een <b>onderdeel</b> van de Rijksuniversiteit Groningen.;part;part of;onderdeel;FALSE;758.6;0.3;;;;;;;;;;;;;;;;;;;;;;;;;;;;;;;;;;;;;;;;;;;;;;;;;;;;;;;;;;;;;;;;;;;;;;;;;;;;;;;;;;;;;;;;;;;;;;;;;;;;;;;;;;;;;;;;;;;;;;;;;;;;;;;;;;;;;;;;;;;;;;;;;;;;;;;;;;;;;;;;;;;;;;;;;;;;;;;;;;;;;;;;;;;;;;;;;;;;;
4;133536.0;1239.0;FALSE;3;kerel;Ik ben een gezonde <b>kerel</b>.;Die <b>kerel</b> blokkeert steeds mijn zicht.;guy;dude;kerel;FALSE;466.1;0.3;;;;;;;;;;;;;;;;;;;;;;;;;;;;;;;;;;;;;;;;;;;;;;;;;;;;;;;;;;;;;;;;;;;;;;;;;;;;;;;;;;;;;;;;;;;;;;;;;;;;;;;;;;;;;;;;;;;;;;;;;;;;;;;;;;;;;;;;;;;;;;;;;;;;;;;;;;;;;;;;;;;;;;;;;;;;;;;;;;;;;;;;;;;;;;;;;;;;;
5;136834.0;1201.0;TRUE;2;onderdeel;Ik mis een <b>onderdeel</b> van mijn IKEA kast.;Deze opleiding is een <b>onderdeel</b> van de Rijksuniversiteit Groningen.;part;part of;onderdeel;FALSE;758.6;0.250390625;;;;;;;;;;;;;;;;;;;;;;;;;;;;;;;;;;;;;;;;;;;;;;;;;;;;;;;;;;;;;;;;;;;;;;;;;;;;;;;;;;;;;;;;;;;;;;;;;;;;;;;;;;;;;;;;;;;;;;;;;;;;;;;;;;;;;;;;;;;;;;;;;;;;;;;;;;;;;;;;;;;;;;;;;;;;;;;;;;;;;;;;;;;;;;;;;;;;;
6;140648.0;1307.0;TRUE;3;kerel;Ik ben een gezonde <b>kerel</b>.;Die <b>kerel</b> blokkeert steeds mijn zicht.;guy;dude;kerel;FALSE;466.1;0.250390625;;;;;;;;;;;;;;;;;;;;;;;;;;;;;;;;;;;;;;;;;;;;;;;;;;;;;;;;;;;;;;;;;;;;;;;;;;;;;;;;;;;;;;;;;;;;;;;;;;;;;;;;;;;;;;;;;;;;;;;;;;;;;;;;;;;;;;;;;;;;;;;;;;;;;;;;;;;;;;;;;;;;;;;;;;;;;;;;;;;;;;;;;;;;;;;;;;;;;
7;143933.0;1006.0;TRUE;4;alternatief;Ik vind thee geen goed <b>alternatief</b> voor koffie.;Ik heb een <b>alternatief</b> voorstel.;alternative;alternatief;FALSE;895.1;0.3;;;;;;;;;;;;;;;;;;;;;;;;;;;;;;;;;;;;;;;;;;;;;;;;;;;;;;;;;;;;;;;;;;;;;;;;;;;;;;;;;;;;;;;;;;;;;;;;;;;;;;;;;;;;;;;;;;;;;;;;;;;;;;;;;;;;;;;;;;;;;;;;;;;;;;;;;;;;;;;;;;;;;;;;;;;;;;;;;;;;;;;;;;;;;;;;;;;;;;
8;148954.0;1608.0;FALSE;5;woede;Ik probeer mijn <b>woede</b> te onderdrukken.;Ik vind <b>woede</b> moeilijk om mee om te gaan.;rage;anger;woede;FALSE;719.6;0.3;;;;;;;;;;;;;;;;;;;;;;;;;;;;;;;;;;;;;;;;;;;;;;;;;;;;;;;;;;;;;;;;;;;;;;;;;;;;;;;;;;;;;;;;;;;;;;;;;;;;;;;;;;;;;;;;;;;;;;;;;;;;;;;;;;;;;;;;;;;;;;;;;;;;;;;;;;;;;;;;;;;;;;;;;;;;;;;;;;;;;;;;;;;;;;;;;;;;;
9;152709.0;929.0;TRUE;4;alternatief;Ik vind thee geen goed <b>alternatief</b> voor koffie.;Ik heb een <b>alternatief</b> voorstel.;alternative;alternatief;FALSE;895.1;0.250390625;;;;;;;;;;;;;;;;;;;;;;;;;;;;;;;;;;;;;;;;;;;;;;;;;;;;;;;;;;;;;;;;;;;;;;;;;;;;;;;;;;;;;;;;;;;;;;;;;;;;;;;;;;;;;;;;;;;;;;;;;;;;;;;;;;;;;;;;;;;;;;;;;;;;;;;;;;;;;;;;;;;;;;;;;;;;;;;;;;;;;;;;;;;;;;;;;;;;;;
10;158708.0;2987.0;FALSE;5;woede;Ik probeer mijn <b>woede</b> te onderdrukken.;Ik vind <b>woede</b> moeilijk om mee om te gaan.;rage;anger;woede;FALSE;719.6;0.349609375;;;;;;;;;;;;;;;;;;;;;;;;;;;;;;;;;;;;;;;;;;;;;;;;;;;;;;;;;;;;;;;;;;;;;;;;;;;;;;;;;;;;;;;;;;;;;;;;;;;;;;;;;;;;;;;;;;;;;;;;;;;;;;;;;;;;;;;;;;;;;;;;;;;;;;;;;;;;;;;;;;;;;;;;;;;;;;;;;;;;;;;;;;;;;;;;;;;;;
11;164051.0;3541.0;FALSE;6;uitnodigen;Ik wil je graag <b>uitnodigen</b> voor mijn verjaardag.;Ze <b>nodigen</b> elke kunstenaar uit voor de expositie.;invite;to invite;uitnodigen;FALSE;914.6;0.3;;;;;;;;;;;;;;;;;;;;;;;;;;;;;;;;;;;;;;;;;;;;;;;;;;;;;;;;;;;;;;;;;;;;;;;;;;;;;;;;;;;;;;;;;;;;;;;;;;;;;;;;;;;;;;;;;;;;;;;;;;;;;;;;;;;;;;;;;;;;;;;;;;;;;;;;;;;;;;;;;;;;;;;;;;;;;;;;;;;;;;;;;;;;;;;;;;;;;
12;171415.0;2092.0;TRUE;7;vervelend;Ik vind het <b>vervelend</b> als de koffie op is.;Doe eens niet zo <b>vervelend</b>.;annoying;vervelend;FALSE;797.6;0.3;;;;;;;;;;;;;;;;;;;;;;;;;;;;;;;;;;;;;;;;;;;;;;;;;;;;;;;;;;;;;;;;;;;;;;;;;;;;;;;;;;;;;;;;;;;;;;;;;;;;;;;;;;;;;;;;;;;;;;;;;;;;;;;;;;;;;;;;;;;;;;;;;;;;;;;;;;;;;;;;;;;;;;;;;;;;;;;;;;;;;;;;;;;;;;;;;;;;;;
13;176820.0;1353.0;TRUE;6;uitnodigen;Ik wil je graag <b>uitnodigen</b> voor mijn verjaardag.;Ze <b>nodigen</b> elke kunstenaar uit voor de expositie.;invite;to invite;uitnodigen;FALSE;914.6;0.250390625;;;;;;;;;;;;;;;;;;;;;;;;;;;;;;;;;;;;;;;;;;;;;;;;;;;;;;;;;;;;;;;;;;;;;;;;;;;;;;;;;;;;;;;;;;;;;;;;;;;;;;;;;;;;;;;;;;;;;;;;;;;;;;;;;;;;;;;;;;;;;;;;;;;;;;;;;;;;;;;;;;;;;;;;;;;;;;;;;;;;;;;;;;;;;;;;;;;;;
14;180614.0;1029.0;TRUE;7;vervelend;Ik vind het <b>vervelend</b> als de koffie op is.;Doe eens niet zo <b>vervelend</b>.;annoying;vervelend;FALSE;797.6;0.250390625;;;;;;;;;;;;;;;;;;;;;;;;;;;;;;;;;;;;;;;;;;;;;;;;;;;;;;;;;;;;;;;;;;;;;;;;;;;;;;;;;;;;;;;;;;;;;;;;;;;;;;;;;;;;;;;;;;;;;;;;;;;;;;;;;;;;;;;;;;;;;;;;;;;;;;;;;;;;;;;;;;;;;;;;;;;;;;;;;;;;;;;;;;;;;;;;;;;;;;
15;184278.0;15522.0;TRUE;5;woede;Ik probeer mijn <b>woede</b> te onderdrukken.;Ik vind <b>woede</b> moeilijk om mee om te gaan.;rage;anger;woede;FALSE;719.6;0.39921874999999996;;;;;;;;;;;;;;;;;;;;;;;;;;;;;;;;;;;;;;;;;;;;;;;;;;;;;;;;;;;;;;;;;;;;;;;;;;;;;;;;;;;;;;;;;;;;;;;;;;;;;;;;;;;;;;;;;;;;;;;;;;;;;;;;;;;;;;;;;;;;;;;;;;;;;;;;;;;;;;;;;;;;;;;;;;;;;;;;;;;;;;;;;;;;;;;;;;;;;
16;202077.0;3797.0;FALSE;8;matig;De burger smaakte een beetje <b>matig</b>.;Ik ben <b>matig</b> enthousiast over deze activiteit.;mediocre;matig;FALSE;661.1;0.3;;;;;;;;;;;;;;;;;;;;;;;;;;;;;;;;;;;;;;;;;;;;;;;;;;;;;;;;;;;;;;;;;;;;;;;;;;;;;;;;;;;;;;;;;;;;;;;;;;;;;;;;;;;;;;;;;;;;;;;;;;;;;;;;;;;;;;;;;;;;;;;;;;;;;;;;;;;;;;;;;;;;;;;;;;;;;;;;;;;;;;;;;;;;;;;;;;;;;;
17;208222.0;1810.0;TRUE;5;woede;Ik probeer mijn <b>woede</b> te onderdrukken.;Ik vind <b>woede</b> moeilijk om mee om te gaan.;rage;anger;woede;FALSE;719.6;0.398828125;;;;;;;;;;;;;;;;;;;;;;;;;;;;;;;;;;;;;;;;;;;;;;;;;;;;;;;;;;;;;;;;;;;;;;;;;;;;;;;;;;;;;;;;;;;;;;;;;;;;;;;;;;;;;;;;;;;;;;;;;;;;;;;;;;;;;;;;;;;;;;;;;;;;;;;;;;;;;;;;;;;;;;;;;;;;;;;;;;;;;;;;;;;;;;;;;;;;;
18;212390.0;1429.0;TRUE;8;matig;De burger smaakte een beetje <b>matig</b>.;Ik ben <b>matig</b> enthousiast over deze activiteit.;mediocre;matig;FALSE;661.1;0.250390625;;;;;;;;;;;;;;;;;;;;;;;;;;;;;;;;;;;;;;;;;;;;;;;;;;;;;;;;;;;;;;;;;;;;;;;;;;;;;;;;;;;;;;;;;;;;;;;;;;;;;;;;;;;;;;;;;;;;;;;;;;;;;;;;;;;;;;;;;;;;;;;;;;;;;;;;;;;;;;;;;;;;;;;;;;;;;;;;;;;;;;;;;;;;;;;;;;;;;;
19;216581.0;3666.0;FALSE;9;algemeen;Dat is niet <b>algemeen</b> bekend.;Over het <b>algemeen</b> ben ik hier heel goed in.;general;algemeen;FALSE;524.6;0.3;;;;;;;;;;;;;;;;;;;;;;;;;;;;;;;;;;;;;;;;;;;;;;;;;;;;;;;;;;;;;;;;;;;;;;;;;;;;;;;;;;;;;;;;;;;;;;;;;;;;;;;;;;;;;;;;;;;;;;;;;;;;;;;;;;;;;;;;;;;;;;;;;;;;;;;;;;;;;;;;;;;;;;;;;;;;;;;;;;;;;;;;;;;;;;;;;;;;;;
20;222706.0;1081.0;TRUE;1;vergeten;Ben je nou alweer je sleutel <b>vergeten</b>?;Sorry,we waren <b>vergeten</b> de wiki aan te passen.;forget;to forget;forgot;vergeten;FALSE;719.6;0.200390625;;;;;;;;;;;;;;;;;;;;;;;;;;;;;;;;;;;;;;;;;;;;;;;;;;;;;;;;;;;;;;;;;;;;;;;;;;;;;;;;;;;;;;;;;;;;;;;;;;;;;;;;;;;;;;;;;;;;;;;;;;;;;;;;;;;;;;;;;;;;;;;;;;;;;;;;;;;;;;;;;;;;;;;;;;;;;;;;;;;;;;;;;;;;;;;;;;;;
21;227591.0;1282.0;TRUE;9;algemeen;Dat is niet <b>algemeen</b> bekend.;Over het <b>algemeen</b> ben ik hier heel goed in.;general;algemeen;FALSE;524.6;0.250390625;;;;;;;;;;;;;;;;;;;;;;;;;;;;;;;;;;;;;;;;;;;;;;;;;;;;;;;;;;;;;;;;;;;;;;;;;;;;;;;;;;;;;;;;;;;;;;;;;;;;;;;;;;;;;;;;;;;;;;;;;;;;;;;;;;;;;;;;;;;;;;;;;;;;;;;;;;;;;;;;;;;;;;;;;;;;;;;;;;;;;;;;;;;;;;;;;;;;;;
22;231553.0;4619.0;FALSE;10;meningen;Politici hebben altijd veel <b>meningen</b>.;Ik heb verschillende <b>meningen</b> over dit onderwerp.;opinions;meningen;FALSE;700.1;0.3;;;;;;;;;;;;;;;;;;;;;;;;;;;;;;;;;;;;;;;;;;;;;;;;;;;;;;;;;;;;;;;;;;;;;;;;;;;;;;;;;;;;;;;;;;;;;;;;;;;;;;;;;;;;;;;;;;;;;;;;;;;;;;;;;;;;;;;;;;;;;;;;;;;;;;;;;;;;;;;;;;;;;;;;;;;;;;;;;;;;;;;;;;;;;;;;;;;;;;
23;239501.0;4250.0;FALSE;11;verwachten;Ze <b>verwachten</b> dat het morgen gaat regenen.;Wij <b>verwachten</b> dat jij het goed gaat doen.;expect;to expect;verwachten;FALSE;797.6;0.3;;;;;;;;;;;;;;;;;;;;;;;;;;;;;;;;;;;;;;;;;;;;;;;;;;;;;;;;;;;;;;;;;;;;;;;;;;;;;;;;;;;;;;;;;;;;;;;;;;;;;;;;;;;;;;;;;;;;;;;;;;;;;;;;;;;;;;;;;;;;;;;;;;;;;;;;;;;;;;;;;;;;;;;;;;;;;;;;;;;;;;;;;;;;;;;;;;;;;
24;246064.0;3950.0;TRUE;10;meningen;Politici hebben altijd veel <b>meningen</b>.;Ik heb verschillende <b>meningen</b> over dit onderwerp.;opinions;meningen;FALSE;700.1;0.349609375;;;;;;;;;;;;;;;;;;;;;;;;;;;;;;;;;;;;;;;;;;;;;;;;;;;;;;;;;;;;;;;;;;;;;;;;;;;;;;;;;;;;;;;;;;;;;;;;;;;;;;;;;;;;;;;;;;;;;;;;;;;;;;;;;;;;;;;;;;;;;;;;;;;;;;;;;;;;;;;;;;;;;;;;;;;;;;;;;;;;;;;;;;;;;;;;;;;;;;
25;252939.0;1485.0;TRUE;11;verwachten;Ze <b>verwachten</b> dat het morgen gaat regenen.;Wij <b>verwachten</b> dat jij het goed gaat doen.;expect;to expect;verwachten;FALSE;797.6;0.250390625;;;;;;;;;;;;;;;;;;;;;;;;;;;;;;;;;;;;;;;;;;;;;;;;;;;;;;;;;;;;;;;;;;;;;;;;;;;;;;;;;;;;;;;;;;;;;;;;;;;;;;;;;;;;;;;;;;;;;;;;;;;;;;;;;;;;;;;;;;;;;;;;;;;;;;;;;;;;;;;;;;;;;;;;;;;;;;;;;;;;;;;;;;;;;;;;;;;;;
26;257262.0;2680.0;TRUE;5;woede;Ik probeer mijn <b>woede</b> te onderdrukken.;Ik vind <b>woede</b> moeilijk om mee om te gaan.;rage;anger;woede;FALSE;719.6;0.43671874999999993;;;;;;;;;;;;;;;;;;;;;;;;;;;;;;;;;;;;;;;;;;;;;;;;;;;;;;;;;;;;;;;;;;;;;;;;;;;;;;;;;;;;;;;;;;;;;;;;;;;;;;;;;;;;;;;;;;;;;;;;;;;;;;;;;;;;;;;;;;;;;;;;;;;;;;;;;;;;;;;;;;;;;;;;;;;;;;;;;;;;;;;;;;;;;;;;;;;;;
27;262089.0;1654.0;TRUE;3;kerel;Ik ben een gezonde <b>kerel</b>.;Die <b>kerel</b> blokkeert steeds mijn zicht.;guy;dude;kerel;FALSE;466.1;0.20078125;;;;;;;;;;;;;;;;;;;;;;;;;;;;;;;;;;;;;;;;;;;;;;;;;;;;;;;;;;;;;;;;;;;;;;;;;;;;;;;;;;;;;;;;;;;;;;;;;;;;;;;;;;;;;;;;;;;;;;;;;;;;;;;;;;;;;;;;;;;;;;;;;;;;;;;;;;;;;;;;;;;;;;;;;;;;;;;;;;;;;;;;;;;;;;;;;;;;;
28;265763.0;32106.0;FALSE;2;onderdeel;Ik mis een <b>onderdeel</b> van mijn IKEA kast.;Deze opleiding is een <b>onderdeel</b> van de Rijksuniversiteit Groningen.;part;part of;onderdeel;FALSE;758.6;0.29999999999999993;;;;;;;;;;;;;;;;;;;;;;;;;;;;;;;;;;;;;;;;;;;;;;;;;;;;;;;;;;;;;;;;;;;;;;;;;;;;;;;;;;;;;;;;;;;;;;;;;;;;;;;;;;;;;;;;;;;;;;;;;;;;;;;;;;;;;;;;;;;;;;;;;;;;;;;;;;;;;;;;;;;;;;;;;;;;;;;;;;;;;;;;;;;;;;;;;;;;;
29;300271.0;1490.0;TRUE;10;meningen;Politici hebben altijd veel <b>meningen</b>.;Ik heb verschillende <b>meningen</b> over dit onderwerp.;opinions;meningen;FALSE;700.1;0.30000000000000004;;;;;;;;;;;;;;;;;;;;;;;;;;;;;;;;;;;;;;;;;;;;;;;;;;;;;;;;;;;;;;;;;;;;;;;;;;;;;;;;;;;;;;;;;;;;;;;;;;;;;;;;;;;;;;;;;;;;;;;;;;;;;;;;;;;;;;;;;;;;;;;;;;;;;;;;;;;;;;;;;;;;;;;;;;;;;;;;;;;;;;;;;;;;;;;;;;;;;;
30;304755.0;1596.0;TRUE;5;woede;Ik probeer mijn <b>woede</b> te onderdrukken.;Ik vind <b>woede</b> moeilijk om mee om te gaan.;rage;anger;woede;FALSE;719.6;0.42851562499999996;;;;;;;;;;;;;;;;;;;;;;;;;;;;;;;;;;;;;;;;;;;;;;;;;;;;;;;;;;;;;;;;;;;;;;;;;;;;;;;;;;;;;;;;;;;;;;;;;;;;;;;;;;;;;;;;;;;;;;;;;;;;;;;;;;;;;;;;;;;;;;;;;;;;;;;;;;;;;;;;;;;;;;;;;;;;;;;;;;;;;;;;;;;;;;;;;;;;;
31;308474.0;3315.0;TRUE;4;alternatief;Ik vind thee geen goed <b>alternatief</b> voor koffie.;Ik heb een <b>alternatief</b> voorstel.;alternative;alternatief;FALSE;895.1;0.2984375;;;;;;;;;;;;;;;;;;;;;;;;;;;;;;;;;;;;;;;;;;;;;;;;;;;;;;;;;;;;;;;;;;;;;;;;;;;;;;;;;;;;;;;;;;;;;;;;;;;;;;;;;;;;;;;;;;;;;;;;;;;;;;;;;;;;;;;;;;;;;;;;;;;;;;;;;;;;;;;;;;;;;;;;;;;;;;;;;;;;;;;;;;;;;;;;;;;;;;
32;326126.0;1103.0;TRUE;7;vervelend;Ik vind het <b>vervelend</b> als de koffie op is.;Doe eens niet zo <b>vervelend</b>.;annoying;vervelend;FALSE;797.6;0.20078125;;;;;;;;;;;;;;;;;;;;;;;;;;;;;;;;;;;;;;;;;;;;;;;;;;;;;;;;;;;;;;;;;;;;;;;;;;;;;;;;;;;;;;;;;;;;;;;;;;;;;;;;;;;;;;;;;;;;;;;;;;;;;;;;;;;;;;;;;;;;;;;;;;;;;;;;;;;;;;;;;;;;;;;;;;;;;;;;;;;;;;;;;;;;;;;;;;;;;;
33;330281.0;1070.0;TRUE;6;uitnodigen;Ik wil je graag <b>uitnodigen</b> voor mijn verjaardag.;Ze <b>nodigen</b> elke kunstenaar uit voor de expositie.;invite;to invite;uitnodigen;FALSE;914.6;0.20078125;;;;;;;;;;;;;;;;;;;;;;;;;;;;;;;;;;;;;;;;;;;;;;;;;;;;;;;;;;;;;;;;;;;;;;;;;;;;;;;;;;;;;;;;;;;;;;;;;;;;;;;;;;;;;;;;;;;;;;;;;;;;;;;;;;;;;;;;;;;;;;;;;;;;;;;;;;;;;;;;;;;;;;;;;;;;;;;;;;;;;;;;;;;;;;;;;;;;;
34;334161.0;20488.0;FALSE;8;matig;De burger smaakte een beetje <b>matig</b>.;Ik ben <b>matig</b> enthousiast over deze activiteit.;mediocre;matig;FALSE;661.1;0.29999999999999993;;;;;;;;;;;;;;;;;;;;;;;;;;;;;;;;;;;;;;;;;;;;;;;;;;;;;;;;;;;;;;;;;;;;;;;;;;;;;;;;;;;;;;;;;;;;;;;;;;;;;;;;;;;;;;;;;;;;;;;;;;;;;;;;;;;;;;;;;;;;;;;;;;;;;;;;;;;;;;;;;;;;;;;;;;;;;;;;;;;;;;;;;;;;;;;;;;;;;;
35;357252.0;1086.0;TRUE;2;onderdeel;Ik mis een <b>onderdeel</b> van mijn IKEA kast.;Deze opleiding is een <b>onderdeel</b> van de Rijksuniversiteit Groningen.;part;part of;onderdeel;FALSE;758.6;0.250390625;;;;;;;;;;;;;;;;;;;;;;;;;;;;;;;;;;;;;;;;;;;;;;;;;;;;;;;;;;;;;;;;;;;;;;;;;;;;;;;;;;;;;;;;;;;;;;;;;;;;;;;;;;;;;;;;;;;;;;;;;;;;;;;;;;;;;;;;;;;;;;;;;;;;;;;;;;;;;;;;;;;;;;;;;;;;;;;;;;;;;;;;;;;;;;;;;;;;;
36;360430.0;1359.0;TRUE;5;woede;Ik probeer mijn <b>woede</b> te onderdrukken.;Ik vind <b>woede</b> moeilijk om mee om te gaan.;rage;anger;woede;FALSE;719.6;0.37890625;;;;;;;;;;;;;;;;;;;;;;;;;;;;;;;;;;;;;;;;;;;;;;;;;;;;;;;;;;;;;;;;;;;;;;;;;;;;;;;;;;;;;;;;;;;;;;;;;;;;;;;;;;;;;;;;;;;;;;;;;;;;;;;;;;;;;;;;;;;;;;;;;;;;;;;;;;;;;;;;;;;;;;;;;;;;;;;;;;;;;;;;;;;;;;;;;;;;;
37;363821.0;923.0;TRUE;9;algemeen;Dat is niet <b>algemeen</b> bekend.;Over het <b>algemeen</b> ben ik hier heel goed in.;general;algemeen;FALSE;524.6;0.20078125;;;;;;;;;;;;;;;;;;;;;;;;;;;;;;;;;;;;;;;;;;;;;;;;;;;;;;;;;;;;;;;;;;;;;;;;;;;;;;;;;;;;;;;;;;;;;;;;;;;;;;;;;;;;;;;;;;;;;;;;;;;;;;;;;;;;;;;;;;;;;;;;;;;;;;;;;;;;;;;;;;;;;;;;;;;;;;;;;;;;;;;;;;;;;;;;;;;;;;
38;367091.0;1667.0;FALSE;12;gemiddeld;Deze opleiding heeft <b>gemiddeld</b> 60 studenten per jaar.;De temperatuur in Nederland is <b>gemiddeld</b> 15 graden.;average;on average;gemiddeld;FALSE;1012.1;0.3;;;;;;;;;;;;;;;;;;;;;;;;;;;;;;;;;;;;;;;;;;;;;;;;;;;;;;;;;;;;;;;;;;;;;;;;;;;;;;;;;;;;;;;;;;;;;;;;;;;;;;;;;;;;;;;;;;;;;;;;;;;;;;;;;;;;;;;;;;;;;;;;;;;;;;;;;;;;;;;;;;;;;;;;;;;;;;;;;;;;;;;;;;;;;;;;;;;;;
39;371865.0;3531.0;FALSE;13;vaag;Ik heb een <b>vaag</b> idee van wat ik wil doen voor mijn scriptie.;Het plan kwam niet verder dan een <b>vage</b> gedachte.;vague;vaag;FALSE;1148.6;0.3;;;;;;;;;;;;;;;;;;;;;;;;;;;;;;;;;;;;;;;;;;;;;;;;;;;;;;;;;;;;;;;;;;;;;;;;;;;;;;;;;;;;;;;;;;;;;;;;;;;;;;;;;;;;;;;;;;;;;;;;;;;;;;;;;;;;;;;;;;;;;;;;;;;;;;;;;;;;;;;;;;;;;;;;;;;;;;;;;;;;;;;;;;;;;;;;;;;;;;
40;377543.0;1368.0;TRUE;12;gemiddeld;Deze opleiding heeft <b>gemiddeld</b> 60 studenten per jaar.;De temperatuur in Nederland is <b>gemiddeld</b> 15 graden.;average;on average;gemiddeld;FALSE;1012.1;0.250390625;;;;;;;;;;;;;;;;;;;;;;;;;;;;;;;;;;;;;;;;;;;;;;;;;;;;;;;;;;;;;;;;;;;;;;;;;;;;;;;;;;;;;;;;;;;;;;;;;;;;;;;;;;;;;;;;;;;;;;;;;;;;;;;;;;;;;;;;;;;;;;;;;;;;;;;;;;;;;;;;;;;;;;;;;;;;;;;;;;;;;;;;;;;;;;;;;;;;;
41;382544.0;1450.0;TRUE;13;vaag;Ik heb een <b>vaag</b> idee van wat ik wil doen voor mijn scriptie.;Het plan kwam niet verder dan een <b>vage</b> gedachte.;vague;vaag;FALSE;1148.6;0.250390625;;;;;;;;;;;;;;;;;;;;;;;;;;;;;;;;;;;;;;;;;;;;;;;;;;;;;;;;;;;;;;;;;;;;;;;;;;;;;;;;;;;;;;;;;;;;;;;;;;;;;;;;;;;;;;;;;;;;;;;;;;;;;;;;;;;;;;;;;;;;;;;;;;;;;;;;;;;;;;;;;;;;;;;;;;;;;;;;;;;;;;;;;;;;;;;;;;;;;;
42;387932.0;1390.0;TRUE;11;verwachten;Ze <b>verwachten</b> dat het morgen gaat regenen.;Wij <b>verwachten</b> dat jij het goed gaat doen.;expect;to expect;verwachten;FALSE;797.6;0.20078125;;;;;;;;;;;;;;;;;;;;;;;;;;;;;;;;;;;;;;;;;;;;;;;;;;;;;;;;;;;;;;;;;;;;;;;;;;;;;;;;;;;;;;;;;;;;;;;;;;;;;;;;;;;;;;;;;;;;;;;;;;;;;;;;;;;;;;;;;;;;;;;;;;;;;;;;;;;;;;;;;;;;;;;;;;;;;;;;;;;;;;;;;;;;;;;;;;;;;
43;391652.0;743.0;TRUE;4;alternatief;Ik vind thee geen goed <b>alternatief</b> voor koffie.;Ik heb een <b>alternatief</b> voorstel.;alternative;alternatief;FALSE;895.1;0.248828125;;;;;;;;;;;;;;;;;;;;;;;;;;;;;;;;;;;;;;;;;;;;;;;;;;;;;;;;;;;;;;;;;;;;;;;;;;;;;;;;;;;;;;;;;;;;;;;;;;;;;;;;;;;;;;;;;;;;;;;;;;;;;;;;;;;;;;;;;;;;;;;;;;;;;;;;;;;;;;;;;;;;;;;;;;;;;;;;;;;;;;;;;;;;;;;;;;;;;;
44;395792.0;2419.0;FALSE;14;dreigen;Het <b>dreigt</b> te gaan regenen.;De directeur <b>dreigt</b> met onstlag.;threaten;to threaten;dreigen;FALSE;505.1;0.3;;;;;;;;;;;;;;;;;;;;;;;;;;;;;;;;;;;;;;;;;;;;;;;;;;;;;;;;;;;;;;;;;;;;;;;;;;;;;;;;;;;;;;;;;;;;;;;;;;;;;;;;;;;;;;;;;;;;;;;;;;;;;;;;;;;;;;;;;;;;;;;;;;;;;;;;;;;;;;;;;;;;;;;;;;;;;;;;;;;;;;;;;;;;;;;;;;;;;
45;400113.0;1302.0;FALSE;15;beseffen;Ik <b>besef</b> dat ik het fout heb gedaan.;Ik heb niet <b>beseft</b> dat het zo laat was.;realize;to realize;beseffen;FALSE;680.6;0.3;;;;;;;;;;;;;;;;;;;;;;;;;;;;;;;;;;;;;;;;;;;;;;;;;;;;;;;;;;;;;;;;;;;;;;;;;;;;;;;;;;;;;;;;;;;;;;;;;;;;;;;;;;;;;;;;;;;;;;;;;;;;;;;;;;;;;;;;;;;;;;;;;;;;;;;;;;;;;;;;;;;;;;;;;;;;;;;;;;;;;;;;;;;;;;;;;;;;;
46;403462.0;1148.0;TRUE;14;dreigen;Het <b>dreigt</b> te gaan regenen.;De directeur <b>dreigt</b> met onstlag.;threaten;to threaten;dreigen;FALSE;505.1;0.250390625;;;;;;;;;;;;;;;;;;;;;;;;;;;;;;;;;;;;;;;;;;;;;;;;;;;;;;;;;;;;;;;;;;;;;;;;;;;;;;;;;;;;;;;;;;;;;;;;;;;;;;;;;;;;;;;;;;;;;;;;;;;;;;;;;;;;;;;;;;;;;;;;;;;;;;;;;;;;;;;;;;;;;;;;;;;;;;;;;;;;;;;;;;;;;;;;;;;;;
47;407689.0;568.0;TRUE;15;beseffen;Ik <b>besef</b> dat ik het fout heb gedaan.;Ik heb niet <b>beseft</b> dat het zo laat was.;realize;to realize;beseffen;FALSE;680.6;0.250390625;;;;;;;;;;;;;;;;;;;;;;;;;;;;;;;;;;;;;;;;;;;;;;;;;;;;;;;;;;;;;;;;;;;;;;;;;;;;;;;;;;;;;;;;;;;;;;;;;;;;;;;;;;;;;;;;;;;;;;;;;;;;;;;;;;;;;;;;;;;;;;;;;;;;;;;;;;;;;;;;;;;;;;;;;;;;;;;;;;;;;;;;;;;;;;;;;;;;;
48;412845.0;inf;FALSE;16;voldoende;Ik heb <b>voldoende</b> tijd.;Verderop is er <b>voldoende</b> ruimte.;sufficient;enough;voldoende;FALSE;407.6;0.3;;;;;;;;;;;;;;;;;;;;;;;;;;;;;;;;;;;;;;;;;;;;;;;;;;;;;;;;;;;;;;;;;;;;;;;;;;;;;;;;;;;;;;;;;;;;;;;;;;;;;;;;;;;;;;;;;;;;;;;;;;;;;;;;;;;;;;;;;;;;;;;;;;;;;;;;;;;;;;;;;;;;;;;;;;;;;;;;;;;;;;;;;;;;;;;;;;;;;
49;419126.0;2541.0;TRUE;8;matig;De burger smaakte een beetje <b>matig</b>.;Ik ben <b>matig</b> enthousiast over deze activiteit.;mediocre;matig;FALSE;661.1;0.312890625;;;;;;;;;;;;;;;;;;;;;;;;;;;;;;;;;;;;;;;;;;;;;;;;;;;;;;;;;;;;;;;;;;;;;;;;;;;;;;;;;;;;;;;;;;;;;;;;;;;;;;;;;;;;;;;;;;;;;;;;;;;;;;;;;;;;;;;;;;;;;;;;;;;;;;;;;;;;;;;;;;;;;;;;;;;;;;;;;;;;;;;;;;;;;;;;;;;;;;
50;424901.0;8724.0;TRUE;16;voldoende;Ik heb <b>voldoende</b> tijd.;Verderop is er <b>voldoende</b> ruimte.;sufficient;enough;voldoende;FALSE;407.6;0.349609375;;;;;;;;;;;;;;;;;;;;;;;;;;;;;;;;;;;;;;;;;;;;;;;;;;;;;;;;;;;;;;;;;;;;;;;;;;;;;;;;;;;;;;;;;;;;;;;;;;;;;;;;;;;;;;;;;;;;;;;;;;;;;;;;;;;;;;;;;;;;;;;;;;;;;;;;;;;;;;;;;;;;;;;;;;;;;;;;;;;;;;;;;;;;;;;;;;;;;
51;437508.0;1407.0;TRUE;10;meningen;Politici hebben altijd veel <b>meningen</b>.;Ik heb verschillende <b>meningen</b> over dit onderwerp.;opinions;meningen;FALSE;700.1;0.2503906250000001;;;;;;;;;;;;;;;;;;;;;;;;;;;;;;;;;;;;;;;;;;;;;;;;;;;;;;;;;;;;;;;;;;;;;;;;;;;;;;;;;;;;;;;;;;;;;;;;;;;;;;;;;;;;;;;;;;;;;;;;;;;;;;;;;;;;;;;;;;;;;;;;;;;;;;;;;;;;;;;;;;;;;;;;;;;;;;;;;;;;;;;;;;;;;;;;;;;;;;
52;442088.0;1969.0;FALSE;17;bewaren;Ik vind het fijn om al mijn bonnetjes in een map te <b>bewaren</b>.;Hoe lang kun je deze kaas <b>bewaren</b>?;keep;to keep;bewaren;FALSE;1148.6;0.3;;;;;;;;;;;;;;;;;;;;;;;;;;;;;;;;;;;;;;;;;;;;;;;;;;;;;;;;;;;;;;;;;;;;;;;;;;;;;;;;;;;;;;;;;;;;;;;;;;;;;;;;;;;;;;;;;;;;;;;;;;;;;;;;;;;;;;;;;;;;;;;;;;;;;;;;;;;;;;;;;;;;;;;;;;;;;;;;;;;;;;;;;;;;;;;;;;;;;
53;447651.0;4467.0;TRUE;16;voldoende;Ik heb <b>voldoende</b> tijd.;Verderop is er <b>voldoende</b> ruimte.;sufficient;enough;voldoende;FALSE;407.6;0.39921874999999996;;;;;;;;;;;;;;;;;;;;;;;;;;;;;;;;;;;;;;;;;;;;;;;;;;;;;;;;;;;;;;;;;;;;;;;;;;;;;;;;;;;;;;;;;;;;;;;;;;;;;;;;;;;;;;;;;;;;;;;;;;;;;;;;;;;;;;;;;;;;;;;;;;;;;;;;;;;;;;;;;;;;;;;;;;;;;;;;;;;;;;;;;;;;;;;;;;;;;
54;454928.0;1843.0;TRUE;17;bewaren;Ik vind het fijn om al mijn bonnetjes in een map te <b>bewaren</b>.;Hoe lang kun je deze kaas <b>bewaren</b>?;keep;to keep;bewaren;FALSE;1148.6;0.250390625;;;;;;;;;;;;;;;;;;;;;;;;;;;;;;;;;;;;;;;;;;;;;;;;;;;;;;;;;;;;;;;;;;;;;;;;;;;;;;;;;;;;;;;;;;;;;;;;;;;;;;;;;;;;;;;;;;;;;;;;;;;;;;;;;;;;;;;;;;;;;;;;;;;;;;;;;;;;;;;;;;;;;;;;;;;;;;;;;;;;;;;;;;;;;;;;;;;;;
55;458777.0;1743.0;FALSE;18;fluisteren;<b>Fluisteren</b> in het openbaar is niet beleefd.;Ik kon ze vanuit mijn tent horen <b>fluisteren</b>.;whisper;to whisper;fluisteren;FALSE;817.1;0.3;;;;;;;;;;;;;;;;;;;;;;;;;;;;;;;;;;;;;;;;;;;;;;;;;;;;;;;;;;;;;;;;;;;;;;;;;;;;;;;;;;;;;;;;;;;;;;;;;;;;;;;;;;;;;;;;;;;;;;;;;;;;;;;;;;;;;;;;;;;;;;;;;;;;;;;;;;;;;;;;;;;;;;;;;;;;;;;;;;;;;;;;;;;;;;;;;;;;;
56;463324.0;5162.0;FALSE;19;woordenschat;Ik heb een goede <b>woordenschat</b>.;Een boek lezen doet wonderen voor je <b>woordenschat</b>.;vocabulary;woordenschat;FALSE;563.6;0.3;;;;;;;;;;;;;;;;;;;;;;;;;;;;;;;;;;;;;;;;;;;;;;;;;;;;;;;;;;;;;;;;;;;;;;;;;;;;;;;;;;;;;;;;;;;;;;;;;;;;;;;;;;;;;;;;;;;;;;;;;;;;;;;;;;;;;;;;;;;;;;;;;;;;;;;;;;;;;;;;;;;;;;;;;;;;;;;;;;;;;;;;;;;;;;;;;;;;;;
57;470990.0;2223.0;TRUE;18;fluisteren;<b>Fluisteren</b> in het openbaar is niet beleefd.;Ik kon ze vanuit mijn tent horen <b>fluisteren</b>.;whisper;to whisper;fluisteren;FALSE;817.1;0.262109375;;;;;;;;;;;;;;;;;;;;;;;;;;;;;;;;;;;;;;;;;;;;;;;;;;;;;;;;;;;;;;;;;;;;;;;;;;;;;;;;;;;;;;;;;;;;;;;;;;;;;;;;;;;;;;;;;;;;;;;;;;;;;;;;;;;;;;;;;;;;;;;;;;;;;;;;;;;;;;;;;;;;;;;;;;;;;;;;;;;;;;;;;;;;;;;;;;;;;
58;475576.0;inf;TRUE;19;woordenschat;Ik heb een goede <b>woordenschat</b>.;Een boek lezen doet wonderen voor je <b>woordenschat</b>.;vocabulary;woordenschat;FALSE;563.6;0.349609375;;;;;;;;;;;;;;;;;;;;;;;;;;;;;;;;;;;;;;;;;;;;;;;;;;;;;;;;;;;;;;;;;;;;;;;;;;;;;;;;;;;;;;;;;;;;;;;;;;;;;;;;;;;;;;;;;;;;;;;;;;;;;;;;;;;;;;;;;;;;;;;;;;;;;;;;;;;;;;;;;;;;;;;;;;;;;;;;;;;;;;;;;;;;;;;;;;;;;;
59;486738.0;2693.0;TRUE;16;voldoende;Ik heb <b>voldoende</b> tijd.;Verderop is er <b>voldoende</b> ruimte.;sufficient;enough;voldoende;FALSE;407.6;0.4488281249999999;;;;;;;;;;;;;;;;;;;;;;;;;;;;;;;;;;;;;;;;;;;;;;;;;;;;;;;;;;;;;;;;;;;;;;;;;;;;;;;;;;;;;;;;;;;;;;;;;;;;;;;;;;;;;;;;;;;;;;;;;;;;;;;;;;;;;;;;;;;;;;;;;;;;;;;;;;;;;;;;;;;;;;;;;;;;;;;;;;;;;;;;;;;;;;;;;;;;;
60;493238.0;3011.0;FALSE;20;betreffen;Het <b>betreft</b> een vrouw.;Die vraag <b>betreft</b> hem ook.;concern;to concern;concerns;betreffen;FALSE;407.6;0.3;;;;;;;;;;;;;;;;;;;;;;;;;;;;;;;;;;;;;;;;;;;;;;;;;;;;;;;;;;;;;;;;;;;;;;;;;;;;;;;;;;;;;;;;;;;;;;;;;;;;;;;;;;;;;;;;;;;;;;;;;;;;;;;;;;;;;;;;;;;;;;;;;;;;;;;;;;;;;;;;;;;;;;;;;;;;;;;;;;;;;;;;;;;;;;;;;;;;
61;498227.0;1305.0;TRUE;19;woordenschat;Ik heb een goede <b>woordenschat</b>.;Een boek lezen doet wonderen voor je <b>woordenschat</b>.;vocabulary;woordenschat;FALSE;563.6;0.30000000000000004;;;;;;;;;;;;;;;;;;;;;;;;;;;;;;;;;;;;;;;;;;;;;;;;;;;;;;;;;;;;;;;;;;;;;;;;;;;;;;;;;;;;;;;;;;;;;;;;;;;;;;;;;;;;;;;;;;;;;;;;;;;;;;;;;;;;;;;;;;;;;;;;;;;;;;;;;;;;;;;;;;;;;;;;;;;;;;;;;;;;;;;;;;;;;;;;;;;;;;
62;502633.0;6394.0;FALSE;20;betreffen;Het <b>betreft</b> een vrouw.;Die vraag <b>betreft</b> hem ook.;concern;to concern;concerns;betreffen;FALSE;407.6;0.349609375;;;;;;;;;;;;;;;;;;;;;;;;;;;;;;;;;;;;;;;;;;;;;;;;;;;;;;;;;;;;;;;;;;;;;;;;;;;;;;;;;;;;;;;;;;;;;;;;;;;;;;;;;;;;;;;;;;;;;;;;;;;;;;;;;;;;;;;;;;;;;;;;;;;;;;;;;;;;;;;;;;;;;;;;;;;;;;;;;;;;;;;;;;;;;;;;;;;;
63;511093.0;1675.0;TRUE;16;voldoende;Ik heb <b>voldoende</b> tijd.;Verderop is er <b>voldoende</b> ruimte.;sufficient;enough;voldoende;FALSE;407.6;0.42421874999999987;;;;;;;;;;;;;;;;;;;;;;;;;;;;;;;;;;;;;;;;;;;;;;;;;;;;;;;;;;;;;;;;;;;;;;;;;;;;;;;;;;;;;;;;;;;;;;;;;;;;;;;;;;;;;;;;;;;;;;;;;;;;;;;;;;;;;;;;;;;;;;;;;;;;;;;;;;;;;;;;;;;;;;;;;;;;;;;;;;;;;;;;;;;;;;;;;;;;;
64;515465.0;1460.0;TRUE;12;gemiddeld;Deze opleiding heeft <b>gemiddeld</b> 60 studenten per jaar.;De temperatuur in Nederland is <b>gemiddeld</b> 15 graden.;average;on average;gemiddeld;FALSE;1012.1;0.20078125;;;;;;;;;;;;;;;;;;;;;;;;;;;;;;;;;;;;;;;;;;;;;;;;;;;;;;;;;;;;;;;;;;;;;;;;;;;;;;;;;;;;;;;;;;;;;;;;;;;;;;;;;;;;;;;;;;;;;;;;;;;;;;;;;;;;;;;;;;;;;;;;;;;;;;;;;;;;;;;;;;;;;;;;;;;;;;;;;;;;;;;;;;;;;;;;;;;;;
65;520834.0;997.0;TRUE;13;vaag;Ik heb een <b>vaag</b> idee van wat ik wil doen voor mijn scriptie.;Het plan kwam niet verder dan een <b>vage</b> gedachte.;vague;vaag;FALSE;1148.6;0.20078125;;;;;;;;;;;;;;;;;;;;;;;;;;;;;;;;;;;;;;;;;;;;;;;;;;;;;;;;;;;;;;;;;;;;;;;;;;;;;;;;;;;;;;;;;;;;;;;;;;;;;;;;;;;;;;;;;;;;;;;;;;;;;;;;;;;;;;;;;;;;;;;;;;;;;;;;;;;;;;;;;;;;;;;;;;;;;;;;;;;;;;;;;;;;;;;;;;;;;;
66;523973.0;1578.0;TRUE;14;dreigen;Het <b>dreigt</b> te gaan regenen.;De directeur <b>dreigt</b> met onstlag.;threaten;to threaten;dreigen;FALSE;505.1;0.20078125;;;;;;;;;;;;;;;;;;;;;;;;;;;;;;;;;;;;;;;;;;;;;;;;;;;;;;;;;;;;;;;;;;;;;;;;;;;;;;;;;;;;;;;;;;;;;;;;;;;;;;;;;;;;;;;;;;;;;;;;;;;;;;;;;;;;;;;;;;;;;;;;;;;;;;;;;;;;;;;;;;;;;;;;;;;;;;;;;;;;;;;;;;;;;;;;;;;;;
67;528084.0;2474.0;TRUE;20;betreffen;Het <b>betreft</b> een vrouw.;Die vraag <b>betreft</b> hem ook.;concern;to concern;concerns;betreffen;FALSE;407.6;0.37812500000000004;;;;;;;;;;;;;;;;;;;;;;;;;;;;;;;;;;;;;;;;;;;;;;;;;;;;;;;;;;;;;;;;;;;;;;;;;;;;;;;;;;;;;;;;;;;;;;;;;;;;;;;;;;;;;;;;;;;;;;;;;;;;;;;;;;;;;;;;;;;;;;;;;;;;;;;;;;;;;;;;;;;;;;;;;;;;;;;;;;;;;;;;;;;;;;;;;;;;
68;533084.0;4183.0;FALSE;15;beseffen;Ik <b>besef</b> dat ik het fout heb gedaan.;Ik heb niet <b>beseft</b> dat het zo laat was.;realize;to realize;beseffen;FALSE;680.6;0.29999999999999993;;;;;;;;;;;;;;;;;;;;;;;;;;;;;;;;;;;;;;;;;;;;;;;;;;;;;;;;;;;;;;;;;;;;;;;;;;;;;;;;;;;;;;;;;;;;;;;;;;;;;;;;;;;;;;;;;;;;;;;;;;;;;;;;;;;;;;;;;;;;;;;;;;;;;;;;;;;;;;;;;;;;;;;;;;;;;;;;;;;;;;;;;;;;;;;;;;;;;
69;539423.0;inf;FALSE;21;behoefte;Ik heb <b>behoefte</b> aan avondeten.;Kinderen hebben <b>behoefte</b> aan veiligheid.;need;behoefte;FALSE;563.6;0.3;;;;;;;;;;;;;;;;;;;;;;;;;;;;;;;;;;;;;;;;;;;;;;;;;;;;;;;;;;;;;;;;;;;;;;;;;;;;;;;;;;;;;;;;;;;;;;;;;;;;;;;;;;;;;;;;;;;;;;;;;;;;;;;;;;;;;;;;;;;;;;;;;;;;;;;;;;;;;;;;;;;;;;;;;;;;;;;;;;;;;;;;;;;;;;;;;;;;;;
70;548440.0;1559.0;TRUE;5;woede;Ik probeer mijn <b>woede</b> te onderdrukken.;Ik vind <b>woede</b> moeilijk om mee om te gaan.;rage;anger;woede;FALSE;719.6;0.32929687500000004;;;;;;;;;;;;;;;;;;;;;;;;;;;;;;;;;;;;;;;;;;;;;;;;;;;;;;;;;;;;;;;;;;;;;;;;;;;;;;;;;;;;;;;;;;;;;;;;;;;;;;;;;;;;;;;;;;;;;;;;;;;;;;;;;;;;;;;;;;;;;;;;;;;;;;;;;;;;;;;;;;;;;;;;;;;;;;;;;;;;;;;;;;;;;;;;;;;;;
71;552118.0;1337.0;TRUE;21;behoefte;Ik heb <b>behoefte</b> aan avondeten.;Kinderen hebben <b>behoefte</b> aan veiligheid.;need;behoefte;FALSE;563.6;0.250390625;;;;;;;;;;;;;;;;;;;;;;;;;;;;;;;;;;;;;;;;;;;;;;;;;;;;;;;;;;;;;;;;;;;;;;;;;;;;;;;;;;;;;;;;;;;;;;;;;;;;;;;;;;;;;;;;;;;;;;;;;;;;;;;;;;;;;;;;;;;;;;;;;;;;;;;;;;;;;;;;;;;;;;;;;;;;;;;;;;;;;;;;;;;;;;;;;;;;;;
72;556362.0;1541.0;TRUE;8;matig;De burger smaakte een beetje <b>matig</b>.;Ik ben <b>matig</b> enthousiast over deze activiteit.;mediocre;matig;FALSE;661.1;0.30625;;;;;;;;;;;;;;;;;;;;;;;;;;;;;;;;;;;;;;;;;;;;;;;;;;;;;;;;;;;;;;;;;;;;;;;;;;;;;;;;;;;;;;;;;;;;;;;;;;;;;;;;;;;;;;;;;;;;;;;;;;;;;;;;;;;;;;;;;;;;;;;;;;;;;;;;;;;;;;;;;;;;;;;;;;;;;;;;;;;;;;;;;;;;;;;;;;;;;;
73;561151.0;3131.0;TRUE;16;voldoende;Ik heb <b>voldoende</b> tijd.;Verderop is er <b>voldoende</b> ruimte.;sufficient;enough;voldoende;FALSE;407.6;0.4738281249999998;;;;;;;;;;;;;;;;;;;;;;;;;;;;;;;;;;;;;;;;;;;;;;;;;;;;;;;;;;;;;;;;;;;;;;;;;;;;;;;;;;;;;;;;;;;;;;;;;;;;;;;;;;;;;;;;;;;;;;;;;;;;;;;;;;;;;;;;;;;;;;;;;;;;;;;;;;;;;;;;;;;;;;;;;;;;;;;;;;;;;;;;;;;;;;;;;;;;;
74;567545.0;1575.0;TRUE;20;betreffen;Het <b>betreft</b> een vrouw.;Die vraag <b>betreft</b> hem ook.;concern;to concern;concerns;betreffen;FALSE;407.6;0.374609375;;;;;;;;;;;;;;;;;;;;;;;;;;;;;;;;;;;;;;;;;;;;;;;;;;;;;;;;;;;;;;;;;;;;;;;;;;;;;;;;;;;;;;;;;;;;;;;;;;;;;;;;;;;;;;;;;;;;;;;;;;;;;;;;;;;;;;;;;;;;;;;;;;;;;;;;;;;;;;;;;;;;;;;;;;;;;;;;;;;;;;;;;;;;;;;;;;;;
75;572339.0;1014.0;TRUE;18;fluisteren;<b>Fluisteren</b> in het openbaar is niet beleefd.;Ik kon ze vanuit mijn tent horen <b>fluisteren</b>.;whisper;to whisper;fluisteren;FALSE;817.1;0.2125;;;;;;;;;;;;;;;;;;;;;;;;;;;;;;;;;;;;;;;;;;;;;;;;;;;;;;;;;;;;;;;;;;;;;;;;;;;;;;;;;;;;;;;;;;;;;;;;;;;;;;;;;;;;;;;;;;;;;;;;;;;;;;;;;;;;;;;;;;;;;;;;;;;;;;;;;;;;;;;;;;;;;;;;;;;;;;;;;;;;;;;;;;;;;;;;;;;;;
76;575789.0;4500.0;FALSE;22;waarschuwen;Ik ben gekomen om u te <b>waarschuwen</b>.;Het alarm bestaat om je te <b>waarschuwen</b> voor gevaar.;warn;to warn;warning;waarschuwen;FALSE;661.1;0.3;;;;;;;;;;;;;;;;;;;;;;;;;;;;;;;;;;;;;;;;;;;;;;;;;;;;;;;;;;;;;;;;;;;;;;;;;;;;;;;;;;;;;;;;;;;;;;;;;;;;;;;;;;;;;;;;;;;;;;;;;;;;;;;;;;;;;;;;;;;;;;;;;;;;;;;;;;;;;;;;;;;;;;;;;;;;;;;;;;;;;;;;;;;;;;;;;;;;
77;582158.0;1656.0;FALSE;16;voldoende;Ik heb <b>voldoende</b> tijd.;Verderop is er <b>voldoende</b> ruimte.;sufficient;enough;voldoende;FALSE;407.6;0.4921874999999999;;;;;;;;;;;;;;;;;;;;;;;;;;;;;;;;;;;;;;;;;;;;;;;;;;;;;;;;;;;;;;;;;;;;;;;;;;;;;;;;;;;;;;;;;;;;;;;;;;;;;;;;;;;;;;;;;;;;;;;;;;;;;;;;;;;;;;;;;;;;;;;;;;;;;;;;;;;;;;;;;;;;;;;;;;;;;;;;;;;;;;;;;;;;;;;;;;;;;
78;587095.0;1470.0;TRUE;22;waarschuwen;Ik ben gekomen om u te <b>waarschuwen</b>.;Het alarm bestaat om je te <b>waarschuwen</b> voor gevaar.;warn;to warn;warning;waarschuwen;FALSE;661.1;0.250390625;;;;;;;;;;;;;;;;;;;;;;;;;;;;;;;;;;;;;;;;;;;;;;;;;;;;;;;;;;;;;;;;;;;;;;;;;;;;;;;;;;;;;;;;;;;;;;;;;;;;;;;;;;;;;;;;;;;;;;;;;;;;;;;;;;;;;;;;;;;;;;;;;;;;;;;;;;;;;;;;;;;;;;;;;;;;;;;;;;;;;;;;;;;;;;;;;;;;
79;592101.0;inf;FALSE;17;bewaren;Ik vind het fijn om al mijn bonnetjes in een map te <b>bewaren</b>.;Hoe lang kun je deze kaas <b>bewaren</b>?;keep;to keep;bewaren;FALSE;1148.6;0.29999999999999993;;;;;;;;;;;;;;;;;;;;;;;;;;;;;;;;;;;;;;;;;;;;;;;;;;;;;;;;;;;;;;;;;;;;;;;;;;;;;;;;;;;;;;;;;;;;;;;;;;;;;;;;;;;;;;;;;;;;;;;;;;;;;;;;;;;;;;;;;;;;;;;;;;;;;;;;;;;;;;;;;;;;;;;;;;;;;;;;;;;;;;;;;;;;;;;;;;;;;
80;606393.0;934.0;TRUE;16;voldoende;Ik heb <b>voldoende</b> tijd.;Verderop is er <b>voldoende</b> ruimte.;sufficient;enough;voldoende;FALSE;407.6;0.44257812499999993;;;;;;;;;;;;;;;;;;;;;;;;;;;;;;;;;;;;;;;;;;;;;;;;;;;;;;;;;;;;;;;;;;;;;;;;;;;;;;;;;;;;;;;;;;;;;;;;;;;;;;;;;;;;;;;;;;;;;;;;;;;;;;;;;;;;;;;;;;;;;;;;;;;;;;;;;;;;;;;;;;;;;;;;;;;;;;;;;;;;;;;;;;;;;;;;;;;;;
81;610035.0;2020.0;FALSE;15;beseffen;Ik <b>besef</b> dat ik het fout heb gedaan.;Ik heb niet <b>beseft</b> dat het zo laat was.;realize;to realize;beseffen;FALSE;680.6;0.34414062499999987;;;;;;;;;;;;;;;;;;;;;;;;;;;;;;;;;;;;;;;;;;;;;;;;;;;;;;;;;;;;;;;;;;;;;;;;;;;;;;;;;;;;;;;;;;;;;;;;;;;;;;;;;;;;;;;;;;;;;;;;;;;;;;;;;;;;;;;;;;;;;;;;;;;;;;;;;;;;;;;;;;;;;;;;;;;;;;;;;;;;;;;;;;;;;;;;;;;;;
82;613954.0;1188.0;TRUE;19;woordenschat;Ik heb een goede <b>woordenschat</b>.;Een boek lezen doet wonderen voor je <b>woordenschat</b>.;vocabulary;woordenschat;FALSE;563.6;0.2503906250000001;;;;;;;;;;;;;;;;;;;;;;;;;;;;;;;;;;;;;;;;;;;;;;;;;;;;;;;;;;;;;;;;;;;;;;;;;;;;;;;;;;;;;;;;;;;;;;;;;;;;;;;;;;;;;;;;;;;;;;;;;;;;;;;;;;;;;;;;;;;;;;;;;;;;;;;;;;;;;;;;;;;;;;;;;;;;;;;;;;;;;;;;;;;;;;;;;;;;;;
83;619835.0;1735.0;TRUE;20;betreffen;Het <b>betreft</b> een vrouw.;Die vraag <b>betreft</b> hem ook.;concern;to concern;concerns;betreffen;FALSE;407.6;0.32500000000000007;;;;;;;;;;;;;;;;;;;;;;;;;;;;;;;;;;;;;;;;;;;;;;;;;;;;;;;;;;;;;;;;;;;;;;;;;;;;;;;;;;;;;;;;;;;;;;;;;;;;;;;;;;;;;;;;;;;;;;;;;;;;;;;;;;;;;;;;;;;;;;;;;;;;;;;;;;;;;;;;;;;;;;;;;;;;;;;;;;;;;;;;;;;;;;;;;;;;
84;624089.0;1578.0;TRUE;21;behoefte;Ik heb <b>behoefte</b> aan avondeten.;Kinderen hebben <b>behoefte</b> aan veiligheid.;need;behoefte;FALSE;563.6;0.20078125;;;;;;;;;;;;;;;;;;;;;;;;;;;;;;;;;;;;;;;;;;;;;;;;;;;;;;;;;;;;;;;;;;;;;;;;;;;;;;;;;;;;;;;;;;;;;;;;;;;;;;;;;;;;;;;;;;;;;;;;;;;;;;;;;;;;;;;;;;;;;;;;;;;;;;;;;;;;;;;;;;;;;;;;;;;;;;;;;;;;;;;;;;;;;;;;;;;;;;
85;627713.0;1036.0;TRUE;17;bewaren;Ik vind het fijn om al mijn bonnetjes in een map te <b>bewaren</b>.;Hoe lang kun je deze kaas <b>bewaren</b>?;keep;to keep;bewaren;FALSE;1148.6;0.29960937499999996;;;;;;;;;;;;;;;;;;;;;;;;;;;;;;;;;;;;;;;;;;;;;;;;;;;;;;;;;;;;;;;;;;;;;;;;;;;;;;;;;;;;;;;;;;;;;;;;;;;;;;;;;;;;;;;;;;;;;;;;;;;;;;;;;;;;;;;;;;;;;;;;;;;;;;;;;;;;;;;;;;;;;;;;;;;;;;;;;;;;;;;;;;;;;;;;;;;;;
86;630785.0;1194.0;TRUE;15;beseffen;Ik <b>besef</b> dat ik het fout heb gedaan.;Ik heb niet <b>beseft</b> dat het zo laat was.;realize;to realize;beseffen;FALSE;680.6;0.34218749999999987;;;;;;;;;;;;;;;;;;;;;;;;;;;;;;;;;;;;;;;;;;;;;;;;;;;;;;;;;;;;;;;;;;;;;;;;;;;;;;;;;;;;;;;;;;;;;;;;;;;;;;;;;;;;;;;;;;;;;;;;;;;;;;;;;;;;;;;;;;;;;;;;;;;;;;;;;;;;;;;;;;;;;;;;;;;;;;;;;;;;;;;;;;;;;;;;;;;;;
87;637203.0;1628.0;TRUE;1;vergeten;Ben je nou alweer je sleutel <b>vergeten</b>?;Sorry,we waren <b>vergeten</b> de wiki aan te passen.;forget;to forget;forgot;vergeten;FALSE;719.6;0.15078124999999998;;;;;;;;;;;;;;;;;;;;;;;;;;;;;;;;;;;;;;;;;;;;;;;;;;;;;;;;;;;;;;;;;;;;;;;;;;;;;;;;;;;;;;;;;;;;;;;;;;;;;;;;;;;;;;;;;;;;;;;;;;;;;;;;;;;;;;;;;;;;;;;;;;;;;;;;;;;;;;;;;;;;;;;;;;;;;;;;;;;;;;;;;;;;;;;;;;;;
88;641060.0;5958.0;TRUE;22;waarschuwen;Ik ben gekomen om u te <b>waarschuwen</b>.;Het alarm bestaat om je te <b>waarschuwen</b> voor gevaar.;warn;to warn;warning;waarschuwen;FALSE;661.1;0.29999999999999993;;;;;;;;;;;;;;;;;;;;;;;;;;;;;;;;;;;;;;;;;;;;;;;;;;;;;;;;;;;;;;;;;;;;;;;;;;;;;;;;;;;;;;;;;;;;;;;;;;;;;;;;;;;;;;;;;;;;;;;;;;;;;;;;;;;;;;;;;;;;;;;;;;;;;;;;;;;;;;;;;;;;;;;;;;;;;;;;;;;;;;;;;;;;;;;;;;;;
89;649574.0;1300.0;TRUE;2;onderdeel;Ik mis een <b>onderdeel</b> van mijn IKEA kast.;Deze opleiding is een <b>onderdeel</b> van de Rijksuniversiteit Groningen.;part;part of;onderdeel;FALSE;758.6;0.20078125;;;;;;;;;;;;;;;;;;;;;;;;;;;;;;;;;;;;;;;;;;;;;;;;;;;;;;;;;;;;;;;;;;;;;;;;;;;;;;;;;;;;;;;;;;;;;;;;;;;;;;;;;;;;;;;;;;;;;;;;;;;;;;;;;;;;;;;;;;;;;;;;;;;;;;;;;;;;;;;;;;;;;;;;;;;;;;;;;;;;;;;;;;;;;;;;;;;;;
90;653073.0;1173.0;TRUE;16;voldoende;Ik heb <b>voldoende</b> tijd.;Verderop is er <b>voldoende</b> ruimte.;sufficient;enough;voldoende;FALSE;407.6;0.39296875;;;;;;;;;;;;;;;;;;;;;;;;;;;;;;;;;;;;;;;;;;;;;;;;;;;;;;;;;;;;;;;;;;;;;;;;;;;;;;;;;;;;;;;;;;;;;;;;;;;;;;;;;;;;;;;;;;;;;;;;;;;;;;;;;;;;;;;;;;;;;;;;;;;;;;;;;;;;;;;;;;;;;;;;;;;;;;;;;;;;;;;;;;;;;;;;;;;;;
91;658028.0;970.0;TRUE;8;matig;De burger smaakte een beetje <b>matig</b>.;Ik ben <b>matig</b> enthousiast over deze activiteit.;mediocre;matig;FALSE;661.1;0.25664062500000007;;;;;;;;;;;;;;;;;;;;;;;;;;;;;;;;;;;;;;;;;;;;;;;;;;;;;;;;;;;;;;;;;;;;;;;;;;;;;;;;;;;;;;;;;;;;;;;;;;;;;;;;;;;;;;;;;;;;;;;;;;;;;;;;;;;;;;;;;;;;;;;;;;;;;;;;;;;;;;;;;;;;;;;;;;;;;;;;;;;;;;;;;;;;;;;;;;;;;;
92;662151.0;1886.0;TRUE;3;kerel;Ik ben een gezonde <b>kerel</b>.;Die <b>kerel</b> blokkeert steeds mijn zicht.;guy;dude;kerel;FALSE;466.1;0.15117187499999998;;;;;;;;;;;;;;;;;;;;;;;;;;;;;;;;;;;;;;;;;;;;;;;;;;;;;;;;;;;;;;;;;;;;;;;;;;;;;;;;;;;;;;;;;;;;;;;;;;;;;;;;;;;;;;;;;;;;;;;;;;;;;;;;;;;;;;;;;;;;;;;;;;;;;;;;;;;;;;;;;;;;;;;;;;;;;;;;;;;;;;;;;;;;;;;;;;;;;
93;666797.0;873.0;TRUE;4;alternatief;Ik vind thee geen goed <b>alternatief</b> voor koffie.;Ik heb een <b>alternatief</b> voorstel.;alternative;alternatief;FALSE;895.1;0.19921875000000003;;;;;;;;;;;;;;;;;;;;;;;;;;;;;;;;;;;;;;;;;;;;;;;;;;;;;;;;;;;;;;;;;;;;;;;;;;;;;;;;;;;;;;;;;;;;;;;;;;;;;;;;;;;;;;;;;;;;;;;;;;;;;;;;;;;;;;;;;;;;;;;;;;;;;;;;;;;;;;;;;;;;;;;;;;;;;;;;;;;;;;;;;;;;;;;;;;;;;;
94;672274.0;932.0;TRUE;22;waarschuwen;Ik ben gekomen om u te <b>waarschuwen</b>.;Het alarm bestaat om je te <b>waarschuwen</b> voor gevaar.;warn;to warn;warning;waarschuwen;FALSE;661.1;0.250390625;;;;;;;;;;;;;;;;;;;;;;;;;;;;;;;;;;;;;;;;;;;;;;;;;;;;;;;;;;;;;;;;;;;;;;;;;;;;;;;;;;;;;;;;;;;;;;;;;;;;;;;;;;;;;;;;;;;;;;;;;;;;;;;;;;;;;;;;;;;;;;;;;;;;;;;;;;;;;;;;;;;;;;;;;;;;;;;;;;;;;;;;;;;;;;;;;;;;
95;675749.0;1362.0;TRUE;7;vervelend;Ik vind het <b>vervelend</b> als de koffie op is.;Doe eens niet zo <b>vervelend</b>.;annoying;vervelend;FALSE;797.6;0.15117187499999998;;;;;;;;;;;;;;;;;;;;;;;;;;;;;;;;;;;;;;;;;;;;;;;;;;;;;;;;;;;;;;;;;;;;;;;;;;;;;;;;;;;;;;;;;;;;;;;;;;;;;;;;;;;;;;;;;;;;;;;;;;;;;;;;;;;;;;;;;;;;;;;;;;;;;;;;;;;;;;;;;;;;;;;;;;;;;;;;;;;;;;;;;;;;;;;;;;;;;;
96;681558.0;3432.0;TRUE;15;beseffen;Ik <b>besef</b> dat ik het fout heb gedaan.;Ik heb niet <b>beseft</b> dat het zo laat was.;realize;to realize;beseffen;FALSE;680.6;0.34257812499999984;;;;;;;;;;;;;;;;;;;;;;;;;;;;;;;;;;;;;;;;;;;;;;;;;;;;;;;;;;;;;;;;;;;;;;;;;;;;;;;;;;;;;;;;;;;;;;;;;;;;;;;;;;;;;;;;;;;;;;;;;;;;;;;;;;;;;;;;;;;;;;;;;;;;;;;;;;;;;;;;;;;;;;;;;;;;;;;;;;;;;;;;;;;;;;;;;;;;;
97;688333.0;1320.0;TRUE;10;meningen;Politici hebben altijd veel <b>meningen</b>.;Ik heb verschillende <b>meningen</b> over dit onderwerp.;opinions;meningen;FALSE;700.1;0.2007812500000001;;;;;;;;;;;;;;;;;;;;;;;;;;;;;;;;;;;;;;;;;;;;;;;;;;;;;;;;;;;;;;;;;;;;;;;;;;;;;;;;;;;;;;;;;;;;;;;;;;;;;;;;;;;;;;;;;;;;;;;;;;;;;;;;;;;;;;;;;;;;;;;;;;;;;;;;;;;;;;;;;;;;;;;;;;;;;;;;;;;;;;;;;;;;;;;;;;;;;;
98;692343.0;2434.0;TRUE;17;bewaren;Ik vind het fijn om al mijn bonnetjes in een map te <b>bewaren</b>.;Hoe lang kun je deze kaas <b>bewaren</b>?;keep;to keep;bewaren;FALSE;1148.6;0.33671874999999996;;;;;;;;;;;;;;;;;;;;;;;;;;;;;;;;;;;;;;;;;;;;;;;;;;;;;;;;;;;;;;;;;;;;;;;;;;;;;;;;;;;;;;;;;;;;;;;;;;;;;;;;;;;;;;;;;;;;;;;;;;;;;;;;;;;;;;;;;;;;;;;;;;;;;;;;;;;;;;;;;;;;;;;;;;;;;;;;;;;;;;;;;;;;;;;;;;;;;
99;0.0;697990.0;TRUE;1;vergeten;Ben je nou alweer je sleutel <b>vergeten</b>?;Sorry,we waren <b>vergeten</b> de wiki aan te passen.;forget;to forget;forgot;vergeten;FALSE;719.6;0.3;;;;;;;;;;;;;;;;;;;;;;;;;;;;;;;;;;;;;;;;;;;;;;;;;;;;;;;;;;;;;;;;;;;;;;;;;;;;;;;;;;;;;;;;;;;;;;;;;;;;;;;;;;;;;;;;;;;;;;;;;;;;;;;;;;;;;;;;;;;;;;;;;;;;;;;;;;;;;;;;;;;;;;;;;;;;;;;;;;;;;;;;;;;;;;;;;;;;
100;700839.0;950.0;TRUE;6;uitnodigen;Ik wil je graag <b>uitnodigen</b> voor mijn verjaardag.;Ze <b>nodigen</b> elke kunstenaar uit voor de expositie.;invite;to invite;uitnodigen;FALSE;914.6;0.15117187499999998;;;;;;;;;;;;;;;;;;;;;;;;;;;;;;;;;;;;;;;;;;;;;;;;;;;;;;;;;;;;;;;;;;;;;;;;;;;;;;;;;;;;;;;;;;;;;;;;;;;;;;;;;;;;;;;;;;;;;;;;;;;;;;;;;;;;;;;;;;;;;;;;;;;;;;;;;;;;;;;;;;;;;;;;;;;;;;;;;;;;;;;;;;;;;;;;;;;;;
101;704237.0;1300.0;TRUE;9;algemeen;Dat is niet <b>algemeen</b> bekend.;Over het <b>algemeen</b> ben ik hier heel goed in.;general;algemeen;FALSE;524.6;0.15117187499999998;;;;;;;;;;;;;;;;;;;;;;;;;;;;;;;;;;;;;;;;;;;;;;;;;;;;;;;;;;;;;;;;;;;;;;;;;;;;;;;;;;;;;;;;;;;;;;;;;;;;;;;;;;;;;;;;;;;;;;;;;;;;;;;;;;;;;;;;;;;;;;;;;;;;;;;;;;;;;;;;;;;;;;;;;;;;;;;;;;;;;;;;;;;;;;;;;;;;;;
102;708258.0;2180.0;TRUE;20;betreffen;Het <b>betreft</b> een vrouw.;Die vraag <b>betreft</b> hem ook.;concern;to concern;concerns;betreffen;FALSE;407.6;0.3496093750000001;;;;;;;;;;;;;;;;;;;;;;;;;;;;;;;;;;;;;;;;;;;;;;;;;;;;;;;;;;;;;;;;;;;;;;;;;;;;;;;;;;;;;;;;;;;;;;;;;;;;;;;;;;;;;;;;;;;;;;;;;;;;;;;;;;;;;;;;;;;;;;;;;;;;;;;;;;;;;;;;;;;;;;;;;;;;;;;;;;;;;;;;;;;;;;;;;;;;
103;713017.0;1299.0;TRUE;11;verwachten;Ze <b>verwachten</b> dat het morgen gaat regenen.;Wij <b>verwachten</b> dat jij het goed gaat doen.;expect;to expect;verwachten;FALSE;797.6;0.15117187499999998;;;;;;;;;;;;;;;;;;;;;;;;;;;;;;;;;;;;;;;;;;;;;;;;;;;;;;;;;;;;;;;;;;;;;;;;;;;;;;;;;;;;;;;;;;;;;;;;;;;;;;;;;;;;;;;;;;;;;;;;;;;;;;;;;;;;;;;;;;;;;;;;;;;;;;;;;;;;;;;;;;;;;;;;;;;;;;;;;;;;;;;;;;;;;;;;;;;;;
104;716696.0;1828.0;TRUE;5;woede;Ik probeer mijn <b>woede</b> te onderdrukken.;Ik vind <b>woede</b> moeilijk om mee om te gaan.;rage;anger;woede;FALSE;719.6;0.30390625000000004;;;;;;;;;;;;;;;;;;;;;;;;;;;;;;;;;;;;;;;;;;;;;;;;;;;;;;;;;;;;;;;;;;;;;;;;;;;;;;;;;;;;;;;;;;;;;;;;;;;;;;;;;;;;;;;;;;;;;;;;;;;;;;;;;;;;;;;;;;;;;;;;;;;;;;;;;;;;;;;;;;;;;;;;;;;;;;;;;;;;;;;;;;;;;;;;;;;;;
105;720686.0;2855.0;TRUE;17;bewaren;Ik vind het fijn om al mijn bonnetjes in een map te <b>bewaren</b>.;Hoe lang kun je deze kaas <b>bewaren</b>?;keep;to keep;bewaren;FALSE;1148.6;0.34101562499999993;;;;;;;;;;;;;;;;;;;;;;;;;;;;;;;;;;;;;;;;;;;;;;;;;;;;;;;;;;;;;;;;;;;;;;;;;;;;;;;;;;;;;;;;;;;;;;;;;;;;;;;;;;;;;;;;;;;;;;;;;;;;;;;;;;;;;;;;;;;;;;;;;;;;;;;;;;;;;;;;;;;;;;;;;;;;;;;;;;;;;;;;;;;;;;;;;;;;;
106;725613.0;1898.0;TRUE;15;beseffen;Ik <b>besef</b> dat ik het fout heb gedaan.;Ik heb niet <b>beseft</b> dat het zo laat was.;realize;to realize;beseffen;FALSE;680.6;0.3546874999999998;;;;;;;;;;;;;;;;;;;;;;;;;;;;;;;;;;;;;;;;;;;;;;;;;;;;;;;;;;;;;;;;;;;;;;;;;;;;;;;;;;;;;;;;;;;;;;;;;;;;;;;;;;;;;;;;;;;;;;;;;;;;;;;;;;;;;;;;;;;;;;;;;;;;;;;;;;;;;;;;;;;;;;;;;;;;;;;;;;;;;;;;;;;;;;;;;;;;;
107;730161.0;1625.0;TRUE;16;voldoende;Ik heb <b>voldoende</b> tijd.;Verderop is er <b>voldoende</b> ruimte.;sufficient;enough;voldoende;FALSE;407.6;0.36835937499999993;;;;;;;;;;;;;;;;;;;;;;;;;;;;;;;;;;;;;;;;;;;;;;;;;;;;;;;;;;;;;;;;;;;;;;;;;;;;;;;;;;;;;;;;;;;;;;;;;;;;;;;;;;;;;;;;;;;;;;;;;;;;;;;;;;;;;;;;;;;;;;;;;;;;;;;;;;;;;;;;;;;;;;;;;;;;;;;;;;;;;;;;;;;;;;;;;;;;;
108;734530.0;1080.0;TRUE;14;dreigen;Het <b>dreigt</b> te gaan regenen.;De directeur <b>dreigt</b> met onstlag.;threaten;to threaten;dreigen;FALSE;505.1;0.15117187499999998;;;;;;;;;;;;;;;;;;;;;;;;;;;;;;;;;;;;;;;;;;;;;;;;;;;;;;;;;;;;;;;;;;;;;;;;;;;;;;;;;;;;;;;;;;;;;;;;;;;;;;;;;;;;;;;;;;;;;;;;;;;;;;;;;;;;;;;;;;;;;;;;;;;;;;;;;;;;;;;;;;;;;;;;;;;;;;;;;;;;;;;;;;;;;;;;;;;;;
109;738344.0;inf;TRUE;20;betreffen;Het <b>betreft</b> een vrouw.;Die vraag <b>betreft</b> hem ook.;concern;to concern;concerns;betreffen;FALSE;407.6;0.3500000000000001;;;;;;;;;;;;;;;;;;;;;;;;;;;;;;;;;;;;;;;;;;;;;;;;;;;;;;;;;;;;;;;;;;;;;;;;;;;;;;;;;;;;;;;;;;;;;;;;;;;;;;;;;;;;;;;;;;;;;;;;;;;;;;;;;;;;;;;;;;;;;;;;;;;;;;;;;;;;;;;;;;;;;;;;;;;;;;;;;;;;;;;;;;;;;;;;;;;;
110;746175.0;1590.0;TRUE;12;gemiddeld;Deze opleiding heeft <b>gemiddeld</b> 60 studenten per jaar.;De temperatuur in Nederland is <b>gemiddeld</b> 15 graden.;average;on average;gemiddeld;FALSE;1012.1;0.15117187499999998;;;;;;;;;;;;;;;;;;;;;;;;;;;;;;;;;;;;;;;;;;;;;;;;;;;;;;;;;;;;;;;;;;;;;;;;;;;;;;;;;;;;;;;;;;;;;;;;;;;;;;;;;;;;;;;;;;;;;;;;;;;;;;;;;;;;;;;;;;;;;;;;;;;;;;;;;;;;;;;;;;;;;;;;;;;;;;;;;;;;;;;;;;;;;;;;;;;;;
111;751112.0;1314.0;TRUE;18;fluisteren;<b>Fluisteren</b> in het openbaar is niet beleefd.;Ik kon ze vanuit mijn tent horen <b>fluisteren</b>.;whisper;to whisper;fluisteren;FALSE;817.1;0.16289062499999998;;;;;;;;;;;;;;;;;;;;;;;;;;;;;;;;;;;;;;;;;;;;;;;;;;;;;;;;;;;;;;;;;;;;;;;;;;;;;;;;;;;;;;;;;;;;;;;;;;;;;;;;;;;;;;;;;;;;;;;;;;;;;;;;;;;;;;;;;;;;;;;;;;;;;;;;;;;;;;;;;;;;;;;;;;;;;;;;;;;;;;;;;;;;;;;;;;;;;
112;754968.0;inf;TRUE;13;vaag;Ik heb een <b>vaag</b> idee van wat ik wil doen voor mijn scriptie.;Het plan kwam niet verder dan een <b>vage</b> gedachte.;vague;vaag;FALSE;1148.6;0.201171875;;;;;;;;;;;;;;;;;;;;;;;;;;;;;;;;;;;;;;;;;;;;;;;;;;;;;;;;;;;;;;;;;;;;;;;;;;;;;;;;;;;;;;;;;;;;;;;;;;;;;;;;;;;;;;;;;;;;;;;;;;;;;;;;;;;;;;;;;;;;;;;;;;;;;;;;;;;;;;;;;;;;;;;;;;;;;;;;;;;;;;;;;;;;;;;;;;;;;;
113;759229.0;1194.0;TRUE;19;woordenschat;Ik heb een goede <b>woordenschat</b>.;Een boek lezen doet wonderen voor je <b>woordenschat</b>.;vocabulary;woordenschat;FALSE;563.6;0.2007812500000001;;;;;;;;;;;;;;;;;;;;;;;;;;;;;;;;;;;;;;;;;;;;;;;;;;;;;;;;;;;;;;;;;;;;;;;;;;;;;;;;;;;;;;;;;;;;;;;;;;;;;;;;;;;;;;;;;;;;;;;;;;;;;;;;;;;;;;;;;;;;;;;;;;;;;;;;;;;;;;;;;;;;;;;;;;;;;;;;;;;;;;;;;;;;;;;;;;;;;;
114;764273.0;2812.0;TRUE;17;bewaren;Ik vind het fijn om al mijn bonnetjes in een map te <b>bewaren</b>.;Hoe lang kun je deze kaas <b>bewaren</b>?;keep;to keep;bewaren;FALSE;1148.6;0.3414062499999999;;;;;;;;;;;;;;;;;;;;;;;;;;;;;;;;;;;;;;;;;;;;;;;;;;;;;;;;;;;;;;;;;;;;;;;;;;;;;;;;;;;;;;;;;;;;;;;;;;;;;;;;;;;;;;;;;;;;;;;;;;;;;;;;;;;;;;;;;;;;;;;;;;;;;;;;;;;;;;;;;;;;;;;;;;;;;;;;;;;;;;;;;;;;;;;;;;;;;
115;769081.0;inf;TRUE;15;beseffen;Ik <b>besef</b> dat ik het fout heb gedaan.;Ik heb niet <b>beseft</b> dat het zo laat was.;realize;to realize;beseffen;FALSE;680.6;0.39882812499999976;;;;;;;;;;;;;;;;;;;;;;;;;;;;;;;;;;;;;;;;;;;;;;;;;;;;;;;;;;;;;;;;;;;;;;;;;;;;;;;;;;;;;;;;;;;;;;;;;;;;;;;;;;;;;;;;;;;;;;;;;;;;;;;;;;;;;;;;;;;;;;;;;;;;;;;;;;;;;;;;;;;;;;;;;;;;;;;;;;;;;;;;;;;;;;;;;;;;;
116;773786.0;2038.0;TRUE;20;betreffen;Het <b>betreft</b> een vrouw.;Die vraag <b>betreft</b> hem ook.;concern;to concern;concerns;betreffen;FALSE;407.6;0.35039062500000007;;;;;;;;;;;;;;;;;;;;;;;;;;;;;;;;;;;;;;;;;;;;;;;;;;;;;;;;;;;;;;;;;;;;;;;;;;;;;;;;;;;;;;;;;;;;;;;;;;;;;;;;;;;;;;;;;;;;;;;;;;;;;;;;;;;;;;;;;;;;;;;;;;;;;;;;;;;;;;;;;;;;;;;;;;;;;;;;;;;;;;;;;;;;;;;;;;;;
117;778976.0;1337.0;TRUE;15;beseffen;Ik <b>besef</b> dat ik het fout heb gedaan.;Ik heb niet <b>beseft</b> dat het zo laat was.;realize;to realize;beseffen;FALSE;680.6;0.36171874999999976;;;;;;;;;;;;;;;;;;;;;;;;;;;;;;;;;;;;;;;;;;;;;;;;;;;;;;;;;;;;;;;;;;;;;;;;;;;;;;;;;;;;;;;;;;;;;;;;;;;;;;;;;;;;;;;;;;;;;;;;;;;;;;;;;;;;;;;;;;;;;;;;;;;;;;;;;;;;;;;;;;;;;;;;;;;;;;;;;;;;;;;;;;;;;;;;;;;;;
118;782766.0;1120.0;TRUE;22;waarschuwen;Ik ben gekomen om u te <b>waarschuwen</b>.;Het alarm bestaat om je te <b>waarschuwen</b> voor gevaar.;warn;to warn;warning;waarschuwen;FALSE;661.1;0.20078125;;;;;;;;;;;;;;;;;;;;;;;;;;;;;;;;;;;;;;;;;;;;;;;;;;;;;;;;;;;;;;;;;;;;;;;;;;;;;;;;;;;;;;;;;;;;;;;;;;;;;;;;;;;;;;;;;;;;;;;;;;;;;;;;;;;;;;;;;;;;;;;;;;;;;;;;;;;;;;;;;;;;;;;;;;;;;;;;;;;;;;;;;;;;;;;;;;;;
119;786083.0;1804.0;TRUE;21;behoefte;Ik heb <b>behoefte</b> aan avondeten.;Kinderen hebben <b>behoefte</b> aan veiligheid.;need;behoefte;FALSE;563.6;0.201171875;;;;;;;;;;;;;;;;;;;;;;;;;;;;;;;;;;;;;;;;;;;;;;;;;;;;;;;;;;;;;;;;;;;;;;;;;;;;;;;;;;;;;;;;;;;;;;;;;;;;;;;;;;;;;;;;;;;;;;;;;;;;;;;;;;;;;;;;;;;;;;;;;;;;;;;;;;;;;;;;;;;;;;;;;;;;;;;;;;;;;;;;;;;;;;;;;;;;;;
120;789873.0;inf;TRUE;17;bewaren;Ik vind het fijn om al mijn bonnetjes in een map te <b>bewaren</b>.;Hoe lang kun je deze kaas <b>bewaren</b>?;keep;to keep;bewaren;FALSE;1148.6;0.39101562499999987;;;;;;;;;;;;;;;;;;;;;;;;;;;;;;;;;;;;;;;;;;;;;;;;;;;;;;;;;;;;;;;;;;;;;;;;;;;;;;;;;;;;;;;;;;;;;;;;;;;;;;;;;;;;;;;;;;;;;;;;;;;;;;;;;;;;;;;;;;;;;;;;;;;;;;;;;;;;;;;;;;;;;;;;;;;;;;;;;;;;;;;;;;;;;;;;;;;;;
121;794705.0;975.0;TRUE;16;voldoende;Ik heb <b>voldoende</b> tijd.;Verderop is er <b>voldoende</b> ruimte.;sufficient;enough;voldoende;FALSE;407.6;0.31875;;;;;;;;;;;;;;;;;;;;;;;;;;;;;;;;;;;;;;;;;;;;;;;;;;;;;;;;;;;;;;;;;;;;;;;;;;;;;;;;;;;;;;;;;;;;;;;;;;;;;;;;;;;;;;;;;;;;;;;;;;;;;;;;;;;;;;;;;;;;;;;;;;;;;;;;;;;;;;;;;;;;;;;;;;;;;;;;;;;;;;;;;;;;;;;;;;;;;
122;798360.0;inf;TRUE;17;bewaren;Ik vind het fijn om al mijn bonnetjes in een map te <b>bewaren</b>.;Hoe lang kun je deze kaas <b>bewaren</b>?;keep;to keep;bewaren;FALSE;1148.6;0.4406249999999998;;;;;;;;;;;;;;;;;;;;;;;;;;;;;;;;;;;;;;;;;;;;;;;;;;;;;;;;;;;;;;;;;;;;;;;;;;;;;;;;;;;;;;;;;;;;;;;;;;;;;;;;;;;;;;;;;;;;;;;;;;;;;;;;;;;;;;;;;;;;;;;;;;;;;;;;;;;;;;;;;;;;;;;;;;;;;;;;;;;;;;;;;;;;;;;;;;;;;
123;803747.0;1585.0;TRUE;20;betreffen;Het <b>betreft</b> een vrouw.;Die vraag <b>betreft</b> hem ook.;concern;to concern;concerns;betreffen;FALSE;407.6;0.35625000000000007;;;;;;;;;;;;;;;;;;;;;;;;;;;;;;;;;;;;;;;;;;;;;;;;;;;;;;;;;;;;;;;;;;;;;;;;;;;;;;;;;;;;;;;;;;;;;;;;;;;;;;;;;;;;;;;;;;;;;;;;;;;;;;;;;;;;;;;;;;;;;;;;;;;;;;;;;;;;;;;;;;;;;;;;;;;;;;;;;;;;;;;;;;;;;;;;;;;;
124;807745.0;5365.0;TRUE;17;bewaren;Ik vind het fijn om al mijn bonnetjes in een map te <b>bewaren</b>.;Hoe lang kun je deze kaas <b>bewaren</b>?;keep;to keep;bewaren;FALSE;1148.6;0.4660156249999998;;;;;;;;;;;;;;;;;;;;;;;;;;;;;;;;;;;;;;;;;;;;;;;;;;;;;;;;;;;;;;;;;;;;;;;;;;;;;;;;;;;;;;;;;;;;;;;;;;;;;;;;;;;;;;;;;;;;;;;;;;;;;;;;;;;;;;;;;;;;;;;;;;;;;;;;;;;;;;;;;;;;;;;;;;;;;;;;;;;;;;;;;;;;;;;;;;;;;
125;815389.0;1322.0;TRUE;8;matig;De burger smaakte een beetje <b>matig</b>.;Ik ben <b>matig</b> enthousiast over deze activiteit.;mediocre;matig;FALSE;661.1;0.2195312500000001;;;;;;;;;;;;;;;;;;;;;;;;;;;;;;;;;;;;;;;;;;;;;;;;;;;;;;;;;;;;;;;;;;;;;;;;;;;;;;;;;;;;;;;;;;;;;;;;;;;;;;;;;;;;;;;;;;;;;;;;;;;;;;;;;;;;;;;;;;;;;;;;;;;;;;;;;;;;;;;;;;;;;;;;;;;;;;;;;;;;;;;;;;;;;;;;;;;;;;
126;820147.0;1339.0;TRUE;17;bewaren;Ik vind het fijn om al mijn bonnetjes in een map te <b>bewaren</b>.;Hoe lang kun je deze kaas <b>bewaren</b>?;keep;to keep;bewaren;FALSE;1148.6;0.46562499999999984;;;;;;;;;;;;;;;;;;;;;;;;;;;;;;;;;;;;;;;;;;;;;;;;;;;;;;;;;;;;;;;;;;;;;;;;;;;;;;;;;;;;;;;;;;;;;;;;;;;;;;;;;;;;;;;;;;;;;;;;;;;;;;;;;;;;;;;;;;;;;;;;;;;;;;;;;;;;;;;;;;;;;;;;;;;;;;;;;;;;;;;;;;;;;;;;;;;;;
127;824033.0;inf;TRUE;15;beseffen;Ik <b>besef</b> dat ik het fout heb gedaan.;Ik heb niet <b>beseft</b> dat het zo laat was.;realize;to realize;beseffen;FALSE;680.6;0.4113281249999997;;;;;;;;;;;;;;;;;;;;;;;;;;;;;;;;;;;;;;;;;;;;;;;;;;;;;;;;;;;;;;;;;;;;;;;;;;;;;;;;;;;;;;;;;;;;;;;;;;;;;;;;;;;;;;;;;;;;;;;;;;;;;;;;;;;;;;;;;;;;;;;;;;;;;;;;;;;;;;;;;;;;;;;;;;;;;;;;;;;;;;;;;;;;;;;;;;;;;
128;830924.0;1226.0;TRUE;17;bewaren;Ik vind het fijn om al mijn bonnetjes in een map te <b>bewaren</b>.;Hoe lang kun je deze kaas <b>bewaren</b>?;keep;to keep;bewaren;FALSE;1148.6;0.46523437499999987;;;;;;;;;;;;;;;;;;;;;;;;;;;;;;;;;;;;;;;;;;;;;;;;;;;;;;;;;;;;;;;;;;;;;;;;;;;;;;;;;;;;;;;;;;;;;;;;;;;;;;;;;;;;;;;;;;;;;;;;;;;;;;;;;;;;;;;;;;;;;;;;;;;;;;;;;;;;;;;;;;;;;;;;;;;;;;;;;;;;;;;;;;;;;;;;;;;;;
129;834579.0;3304.0;TRUE;15;beseffen;Ik <b>besef</b> dat ik het fout heb gedaan.;Ik heb niet <b>beseft</b> dat het zo laat was.;realize;to realize;beseffen;FALSE;680.6;0.46093749999999967;;;;;;;;;;;;;;;;;;;;;;;;;;;;;;;;;;;;;;;;;;;;;;;;;;;;;;;;;;;;;;;;;;;;;;;;;;;;;;;;;;;;;;;;;;;;;;;;;;;;;;;;;;;;;;;;;;;;;;;;;;;;;;;;;;;;;;;;;;;;;;;;;;;;;;;;;;;;;;;;;;;;;;;;;;;;;;;;;;;;;;;;;;;;;;;;;;;;;
130;841565.0;1022.0;TRUE;17;bewaren;Ik vind het fijn om al mijn bonnetjes in een map te <b>bewaren</b>.;Hoe lang kun je deze kaas <b>bewaren</b>?;keep;to keep;bewaren;FALSE;1148.6;0.4156249999999999;;;;;;;;;;;;;;;;;;;;;;;;;;;;;;;;;;;;;;;;;;;;;;;;;;;;;;;;;;;;;;;;;;;;;;;;;;;;;;;;;;;;;;;;;;;;;;;;;;;;;;;;;;;;;;;;;;;;;;;;;;;;;;;;;;;;;;;;;;;;;;;;;;;;;;;;;;;;;;;;;;;;;;;;;;;;;;;;;;;;;;;;;;;;;;;;;;;;;
131;844606.0;1869.0;TRUE;15;beseffen;Ik <b>besef</b> dat ik het fout heb gedaan.;Ik heb niet <b>beseft</b> dat het zo laat was.;realize;to realize;beseffen;FALSE;680.6;0.5105468749999997;;;;;;;;;;;;;;;;;;;;;;;;;;;;;;;;;;;;;;;;;;;;;;;;;;;;;;;;;;;;;;;;;;;;;;;;;;;;;;;;;;;;;;;;;;;;;;;;;;;;;;;;;;;;;;;;;;;;;;;;;;;;;;;;;;;;;;;;;;;;;;;;;;;;;;;;;;;;;;;;;;;;;;;;;;;;;;;;;;;;;;;;;;;;;;;;;;;;;
132;849836.0;3654.0;TRUE;20;betreffen;Het <b>betreft</b> een vrouw.;Die vraag <b>betreft</b> hem ook.;concern;to concern;concerns;betreffen;FALSE;407.6;0.39960937500000004;;;;;;;;;;;;;;;;;;;;;;;;;;;;;;;;;;;;;;;;;;;;;;;;;;;;;;;;;;;;;;;;;;;;;;;;;;;;;;;;;;;;;;;;;;;;;;;;;;;;;;;;;;;;;;;;;;;;;;;;;;;;;;;;;;;;;;;;;;;;;;;;;;;;;;;;;;;;;;;;;;;;;;;;;;;;;;;;;;;;;;;;;;;;;;;;;;;;
133;856119.0;inf;TRUE;15;beseffen;Ik <b>besef</b> dat ik het fout heb gedaan.;Ik heb niet <b>beseft</b> dat het zo laat was.;realize;to realize;beseffen;FALSE;680.6;0.5601562499999998;;;;;;;;;;;;;;;;;;;;;;;;;;;;;;;;;;;;;;;;;;;;;;;;;;;;;;;;;;;;;;;;;;;;;;;;;;;;;;;;;;;;;;;;;;;;;;;;;;;;;;;;;;;;;;;;;;;;;;;;;;;;;;;;;;;;;;;;;;;;;;;;;;;;;;;;;;;;;;;;;;;;;;;;;;;;;;;;;;;;;;;;;;;;;;;;;;;;;
134;862332.0;1105.0;TRUE;20;betreffen;Het <b>betreft</b> een vrouw.;Die vraag <b>betreft</b> hem ook.;concern;to concern;concerns;betreffen;FALSE;407.6;0.39921875000000007;;;;;;;;;;;;;;;;;;;;;;;;;;;;;;;;;;;;;;;;;;;;;;;;;;;;;;;;;;;;;;;;;;;;;;;;;;;;;;;;;;;;;;;;;;;;;;;;;;;;;;;;;;;;;;;;;;;;;;;;;;;;;;;;;;;;;;;;;;;;;;;;;;;;;;;;;;;;;;;;;;;;;;;;;;;;;;;;;;;;;;;;;;;;;;;;;;;;
135;866018.0;790.0;TRUE;15;beseffen;Ik <b>besef</b> dat ik het fout heb gedaan.;Ik heb niet <b>beseft</b> dat het zo laat was.;realize;to realize;beseffen;FALSE;680.6;0.5597656249999998;;;;;;;;;;;;;;;;;;;;;;;;;;;;;;;;;;;;;;;;;;;;;;;;;;;;;;;;;;;;;;;;;;;;;;;;;;;;;;;;;;;;;;;;;;;;;;;;;;;;;;;;;;;;;;;;;;;;;;;;;;;;;;;;;;;;;;;;;;;;;;;;;;;;;;;;;;;;;;;;;;;;;;;;;;;;;;;;;;;;;;;;;;;;;;;;;;;;;
136;869317.0;inf;TRUE;5;woede;Ik probeer mijn <b>woede</b> te onderdrukken.;Ik vind <b>woede</b> moeilijk om mee om te gaan.;rage;anger;woede;FALSE;719.6;0.310546875;;;;;;;;;;;;;;;;;;;;;;;;;;;;;;;;;;;;;;;;;;;;;;;;;;;;;;;;;;;;;;;;;;;;;;;;;;;;;;;;;;;;;;;;;;;;;;;;;;;;;;;;;;;;;;;;;;;;;;;;;;;;;;;;;;;;;;;;;;;;;;;;;;;;;;;;;;;;;;;;;;;;;;;;;;;;;;;;;;;;;;;;;;;;;;;;;;;;;
137;873498.0;1336.0;TRUE;15;beseffen;Ik <b>besef</b> dat ik het fout heb gedaan.;Ik heb niet <b>beseft</b> dat het zo laat was.;realize;to realize;beseffen;FALSE;680.6;0.5226562499999997;;;;;;;;;;;;;;;;;;;;;;;;;;;;;;;;;;;;;;;;;;;;;;;;;;;;;;;;;;;;;;;;;;;;;;;;;;;;;;;;;;;;;;;;;;;;;;;;;;;;;;;;;;;;;;;;;;;;;;;;;;;;;;;;;;;;;;;;;;;;;;;;;;;;;;;;;;;;;;;;;;;;;;;;;;;;;;;;;;;;;;;;;;;;;;;;;;;;;
138;877299.0;988.0;TRUE;13;vaag;Ik heb een <b>vaag</b> idee van wat ik wil doen voor mijn scriptie.;Het plan kwam niet verder dan een <b>vage</b> gedachte.;vague;vaag;FALSE;1148.6;0.15156250000000002;;;;;;;;;;;;;;;;;;;;;;;;;;;;;;;;;;;;;;;;;;;;;;;;;;;;;;;;;;;;;;;;;;;;;;;;;;;;;;;;;;;;;;;;;;;;;;;;;;;;;;;;;;;;;;;;;;;;;;;;;;;;;;;;;;;;;;;;;;;;;;;;;;;;;;;;;;;;;;;;;;;;;;;;;;;;;;;;;;;;;;;;;;;;;;;;;;;;;;
139;881972.0;10659.0;TRUE;15;beseffen;Ik <b>besef</b> dat ik het fout heb gedaan.;Ik heb niet <b>beseft</b> dat het zo laat was.;realize;to realize;beseffen;FALSE;680.6;0.5230468749999997;;;;;;;;;;;;;;;;;;;;;;;;;;;;;;;;;;;;;;;;;;;;;;;;;;;;;;;;;;;;;;;;;;;;;;;;;;;;;;;;;;;;;;;;;;;;;;;;;;;;;;;;;;;;;;;;;;;;;;;;;;;;;;;;;;;;;;;;;;;;;;;;;;;;;;;;;;;;;;;;;;;;;;;;;;;;;;;;;;;;;;;;;;;;;;;;;;;;;
140;895642.0;1402.0;TRUE;20;betreffen;Het <b>betreft</b> een vrouw.;Die vraag <b>betreft</b> hem ook.;concern;to concern;concerns;betreffen;FALSE;407.6;0.374609375;;;;;;;;;;;;;;;;;;;;;;;;;;;;;;;;;;;;;;;;;;;;;;;;;;;;;;;;;;;;;;;;;;;;;;;;;;;;;;;;;;;;;;;;;;;;;;;;;;;;;;;;;;;;;;;;;;;;;;;;;;;;;;;;;;;;;;;;;;;;;;;;;;;;;;;;;;;;;;;;;;;;;;;;;;;;;;;;;;;;;;;;;;;;;;;;;;;;
141;899419.0;inf;TRUE;15;beseffen;Ik <b>besef</b> dat ik het fout heb gedaan.;Ik heb niet <b>beseft</b> dat het zo laat was.;realize;to realize;beseffen;FALSE;680.6;0.5726562499999998;;;;;;;;;;;;;;;;;;;;;;;;;;;;;;;;;;;;;;;;;;;;;;;;;;;;;;;;;;;;;;;;;;;;;;;;;;;;;;;;;;;;;;;;;;;;;;;;;;;;;;;;;;;;;;;;;;;;;;;;;;;;;;;;;;;;;;;;;;;;;;;;;;;;;;;;;;;;;;;;;;;;;;;;;;;;;;;;;;;;;;;;;;;;;;;;;;;;;
142;903898.0;949.0;TRUE;17;bewaren;Ik vind het fijn om al mijn bonnetjes in een map te <b>bewaren</b>.;Hoe lang kun je deze kaas <b>bewaren</b>?;keep;to keep;bewaren;FALSE;1148.6;0.3902343749999999;;;;;;;;;;;;;;;;;;;;;;;;;;;;;;;;;;;;;;;;;;;;;;;;;;;;;;;;;;;;;;;;;;;;;;;;;;;;;;;;;;;;;;;;;;;;;;;;;;;;;;;;;;;;;;;;;;;;;;;;;;;;;;;;;;;;;;;;;;;;;;;;;;;;;;;;;;;;;;;;;;;;;;;;;;;;;;;;;;;;;;;;;;;;;;;;;;;;;
143;906899.0;inf;TRUE;15;beseffen;Ik <b>besef</b> dat ik het fout heb gedaan.;Ik heb niet <b>beseft</b> dat het zo laat was.;realize;to realize;beseffen;FALSE;680.6;0.6222656249999998;;;;;;;;;;;;;;;;;;;;;;;;;;;;;;;;;;;;;;;;;;;;;;;;;;;;;;;;;;;;;;;;;;;;;;;;;;;;;;;;;;;;;;;;;;;;;;;;;;;;;;;;;;;;;;;;;;;;;;;;;;;;;;;;;;;;;;;;;;;;;;;;;;;;;;;;;;;;;;;;;;;;;;;;;;;;;;;;;;;;;;;;;;;;;;;;;;;;;
144;913563.0;1239.0;TRUE;21;behoefte;Ik heb <b>behoefte</b> aan avondeten.;Kinderen hebben <b>behoefte</b> aan veiligheid.;need;behoefte;FALSE;563.6;0.16328125000000002;;;;;;;;;;;;;;;;;;;;;;;;;;;;;;;;;;;;;;;;;;;;;;;;;;;;;;;;;;;;;;;;;;;;;;;;;;;;;;;;;;;;;;;;;;;;;;;;;;;;;;;;;;;;;;;;;;;;;;;;;;;;;;;;;;;;;;;;;;;;;;;;;;;;;;;;;;;;;;;;;;;;;;;;;;;;;;;;;;;;;;;;;;;;;;;;;;;;;;
145;916773.0;2765.0;TRUE;15;beseffen;Ik <b>besef</b> dat ik het fout heb gedaan.;Ik heb niet <b>beseft</b> dat het zo laat was.;realize;to realize;beseffen;FALSE;680.6;0.6718749999999999;;;;;;;;;;;;;;;;;;;;;;;;;;;;;;;;;;;;;;;;;;;;;;;;;;;;;;;;;;;;;;;;;;;;;;;;;;;;;;;;;;;;;;;;;;;;;;;;;;;;;;;;;;;;;;;;;;;;;;;;;;;;;;;;;;;;;;;;;;;;;;;;;;;;;;;;;;;;;;;;;;;;;;;;;;;;;;;;;;;;;;;;;;;;;;;;;;;;;
146;923796.0;1147.0;TRUE;5;woede;Ik probeer mijn <b>woede</b> te onderdrukken.;Ik vind <b>woede</b> moeilijk om mee om te gaan.;rage;anger;woede;FALSE;719.6;0.28593749999999996;;;;;;;;;;;;;;;;;;;;;;;;;;;;;;;;;;;;;;;;;;;;;;;;;;;;;;;;;;;;;;;;;;;;;;;;;;;;;;;;;;;;;;;;;;;;;;;;;;;;;;;;;;;;;;;;;;;;;;;;;;;;;;;;;;;;;;;;;;;;;;;;;;;;;;;;;;;;;;;;;;;;;;;;;;;;;;;;;;;;;;;;;;;;;;;;;;;;;
147;926991.0;inf;TRUE;15;beseffen;Ik <b>besef</b> dat ik het fout heb gedaan.;Ik heb niet <b>beseft</b> dat het zo laat was.;realize;to realize;beseffen;FALSE;680.6;0.721484375;;;;;;;;;;;;;;;;;;;;;;;;;;;;;;;;;;;;;;;;;;;;;;;;;;;;;;;;;;;;;;;;;;;;;;;;;;;;;;;;;;;;;;;;;;;;;;;;;;;;;;;;;;;;;;;;;;;;;;;;;;;;;;;;;;;;;;;;;;;;;;;;;;;;;;;;;;;;;;;;;;;;;;;;;;;;;;;;;;;;;;;;;;;;;;;;;;;;;
148;941253.0;5817.0;TRUE;20;betreffen;Het <b>betreft</b> een vrouw.;Die vraag <b>betreft</b> hem ook.;concern;to concern;concerns;betreffen;FALSE;407.6;375;;;;;;;;;;;;;;;;;;;;;;;;;;;;;;;;;;;;;;;;;;;;;;;;;;;;;;;;;;;;;;;;;;;;;;;;;;;;;;;;;;;;;;;;;;;;;;;;;;;;;;;;;;;;;;;;;;;;;;;;;;;;;;;;;;;;;;;;;;;;;;;;;;;;;;;;;;;;;;;;;;;;;;;;;;;;;;;;;;;;;;;;;;;;;;;;;;;;
149;949753.0;inf;TRUE;15;beseffen;Ik <b>besef</b> dat ik het fout heb gedaan.;Ik heb niet <b>beseft</b> dat het zo laat was.;realize;to realize;beseffen;FALSE;680.6;0.77109375;;;;;;;;;;;;;;;;;;;;;;;;;;;;;;;;;;;;;;;;;;;;;;;;;;;;;;;;;;;;;;;;;;;;;;;;;;;;;;;;;;;;;;;;;;;;;;;;;;;;;;;;;;;;;;;;;;;;;;;;;;;;;;;;;;;;;;;;;;;;;;;;;;;;;;;;;;;;;;;;;;;;;;;;;;;;;;;;;;;;;;;;;;;;;;;;;;;;;
150;955568.0;inf;TRUE;17;bewaren;Ik vind het fijn om al mijn bonnetjes in een map te <b>bewaren</b>.;Hoe lang kun je deze kaas <b>bewaren</b>?;keep;to keep;bewaren;FALSE;1148.6;0.4062499999999999;;;;;;;;;;;;;;;;;;;;;;;;;;;;;;;;;;;;;;;;;;;;;;;;;;;;;;;;;;;;;;;;;;;;;;;;;;;;;;;;;;;;;;;;;;;;;;;;;;;;;;;;;;;;;;;;;;;;;;;;;;;;;;;;;;;;;;;;;;;;;;;;;;;;;;;;;;;;;;;;;;;;;;;;;;;;;;;;;;;;;;;;;;;;;;;;;;;;;